   timestamp   	   Roll(degrees)    	   Pitch(degrees)   	Yaw(degrees)	         wx         	         wy         	         wz         	         ax         	         ay         	         az         
1731583938.2982735634	-0.89104055650246327680	-0.76526336443790421438	121.09084604770504256521	0.00016265876183751971	-0.00030249360133893788	0.00097050826298072934	0.13585513830184936523	-0.14218801259994506836	9.80097579956054687500
1731583938.2983179092	-0.89104089456232504762	-0.76523365813946664371	121.09086557379748683161	0.00017853830649983138	-0.00026882442762143910	0.00095232581952586770	0.13542203605175018311	-0.14212584495544433594	9.80082416534423828125
1731583938.2983739376	-0.89104090425017745680	-0.76519773738565577403	121.09088962441882131316	0.00018111689132638276	-0.00022932738647796214	0.00092333019711077213	0.13521127402782440186	-0.14212417602539062500	9.80096244812011718750
1731583938.2983846664	-0.89104347604635203428	-0.76516196255041402097	121.09092120892267985255	0.00016595033230260015	-0.00023384182713925838	0.00089450302766636014	0.13481968641281127930	-0.14230877161026000977	9.80019950866699218750
1731583938.3089654446	-0.89095444278872371058	-0.76530248184815807821	121.09097815802891773274	0.00018813827773556113	-0.00030894094379618764	0.00085933227092027664	0.13550150394439697266	-0.14213563501834869385	9.80170822143554687500
1731583938.3090212345	-0.89095927613083580887	-0.76525889987569029049	121.09100383664389255500	0.00016088788106571883	-0.00026736411382444203	0.00088716304162517190	0.13533358275890350342	-0.14244025945663452148	9.80089664459228515625
1731583938.3090498447	-0.89096639387184217718	-0.76521568119895122528	121.09102989205251788007	0.00014607657794840634	-0.00027619078173302114	0.00088654388673603535	0.13475461304187774658	-0.14239233732223510742	9.80067443847656250000
1731583938.3090612888	-0.89097242115504649007	-0.76517596752591277021	121.09106514664449605334	0.00015844652079977095	-0.00030748854624107480	0.00085574481636285782	0.13457505404949188232	-0.14248166978359222412	9.80122661590576171875
1731583938.3185057640	-0.89086455515923124171	-0.76529094827136578960	121.09113484869470767080	0.00020756141748279333	-0.00024276354815810919	0.00082927918992936611	0.13476833701133728027	-0.14322929084300994873	9.80047798156738281250
1731583938.3185331821	-0.89086445272846204180	-0.76526671260085832316	121.09117376829095746871	0.00022359196736942977	-0.00027406963636167347	0.00081887847045436502	0.13468788564205169678	-0.14322309195995330811	9.80116462707519531250
1731583938.3185472488	-0.89086413191316260463	-0.76524273828159239397	121.09121440707372130419	0.00022609882580582052	-0.00027941184816882014	0.00081026949919760227	0.13437566161155700684	-0.14332933723926544189	9.80050086975097656250
1731583938.3185832500	-0.89086419915245296242	-0.76522222261418804123	121.09125861176829630494	0.00022883931524120271	-0.00030852248892188072	0.00077747571049258113	0.13435980677604675293	-0.14349077641963958740	9.80013179779052734375
1731583938.3280942440	-0.89074261645646490848	-0.76530841920946013346	121.09130862189675781337	0.00022992791491560638	-0.00028270159964449704	0.00082274328451603651	0.13489064574241638184	-0.14356866478919982910	9.80066680908203125000
1731583938.3281178474	-0.89074448073172207696	-0.76529554716144421178	121.09135332518980021632	0.00024507945636287332	-0.00029503557016141713	0.00082144147017970681	0.13455989956855773926	-0.14350676536560058594	9.80080127716064453125
1731583938.3281869888	-0.89074782344917924348	-0.76528946790169249947	121.09139819599806742190	0.00023638665152247995	-0.00034475119900889695	0.00082377082435414195	0.13410294055938720703	-0.14380471408367156982	9.80123138427734375000
1731583938.3281981945	-0.89075149784365392769	-0.76528637243404951107	121.09144160566341952290	0.00023908005096018314	-0.00036551183438859880	0.00081396836321800947	0.13370309770107269287	-0.14371897280216217041	9.80141544342041015625
1731583938.3381352425	-0.89062104796863295064	-0.76534921062244687384	121.09147125754833496103	0.00023763667559251189	-0.00034257181687280536	0.00087490474106743932	0.13454556465148925781	-0.14440862834453582764	9.80029869079589843750
1731583938.3381650448	-0.89061279049217123571	-0.76534013186376059767	121.09151264908115308572	0.00027870392659679055	-0.00032319131423719227	0.00087214267114177346	0.13453361392021179199	-0.14464893937110900879	9.80013656616210937500
1731583938.3381874561	-0.89060062730202238512	-0.76532668402172532307	121.09155271080879856527	0.00030664788209833205	-0.00029490003362298012	0.00088588910875841975	0.13458745181560516357	-0.14472080767154693604	9.79978370666503906250
1731583938.3382215500	-0.89059042517026432151	-0.76531016474524682369	121.09159895715515631309	0.00029632027144543827	-0.00027766340645030141	0.00089942954946309328	0.13446165621280670166	-0.14489096403121948242	9.79974842071533203125
1731583938.3477749825	-0.89048463631491037162	-0.76539658037652880118	121.09160098527922855283	0.00025641807587817311	-0.00034754379885271192	0.00095941353356465697	0.13527600467205047607	-0.14536093175411224365	9.79921436309814453125
1731583938.3478136063	-0.89048852153675916998	-0.76537380993292103426	121.09163191492871192168	0.00020155316451564431	-0.00031609836150892079	0.00098526477813720703	0.13493871688842773438	-0.14530819654464721680	9.79948997497558593750
1731583938.3478338718	-0.89049557425196546045	-0.76534524319849905893	121.09166233435644244310	0.00018095133418682963	-0.00027959246654063463	0.00099338823929429054	0.13468457758426666260	-0.14517477154731750488	9.79969406127929687500
1731583938.3479788303	-0.89050523458288344258	-0.76531922073659397476	121.09169358718446574130	0.00016741004947107285	-0.00030161929316818714	0.00100714364089071751	0.13458167016506195068	-0.14549508690834045410	9.79937267303466796875
1731583938.3564090729	-0.89039286912624571180	-0.76541328703724365035	121.09169533082956604630	0.00019356023403815925	-0.00027216013404540718	0.00100706040393561125	0.13497906923294067383	-0.14507827162742614746	9.79996490478515625000
1731583938.3564319611	-0.89039877237621001260	-0.76539328020881902681	121.09172706285824006045	0.00020235782722011209	-0.00029712918330915272	0.00099427998065948486	0.13505268096923828125	-0.14533393085002899170	9.79960918426513671875
1731583938.3565745354	-0.89040442814243292435	-0.76537323837547677208	121.09176022152490759254	0.00020571886852849275	-0.00030004771542735398	0.00098842114675790071	0.13484714925289154053	-0.14552769064903259277	9.79957103729248046875
1731583938.3671498299	-0.89026288704533440566	-0.76542996430501519800	121.09174053987698016499	0.00026340730255469680	-0.00024304234830196947	0.00105473201256245375	0.13604979217052459717	-0.14491736888885498047	9.79893207550048828125
1731583938.3671827316	-0.89026875858657161800	-0.76542586098737763756	121.09176110090874090019	0.00027668956317938864	-0.00028553430456668139	0.00106827309355139732	0.13614125549793243408	-0.14501890540122985840	9.79954433441162109375
1731583938.3672080040	-0.89027352934291059672	-0.76542319823994964256	121.09178432346828913069	0.00028658664086833596	-0.00029622766305692494	0.00105269253253936768	0.13608832657337188721	-0.14495351910591125488	9.79938507080078125000
1731583938.3672566414	-0.89027927304394915975	-0.76542456579005591077	121.09180923154423226151	0.00028207604191266000	-0.00032501845271326602	0.00104405218735337257	0.13644875586032867432	-0.14490957558155059814	9.79921150207519531250
1731583938.3768768311	-0.89012791075078068204	-0.76542260400240236251	121.09179058626637015550	0.00027063145535066724	-0.00024285244580823928	0.00101430166978389025	0.13676738739013671875	-0.14456702768802642822	9.79885292053222656250
1731583938.3769314289	-0.89013244791127865696	-0.76543803764432494230	121.09181855901937296949	0.00027721328660845757	-0.00030812210752628744	0.00099463784135878086	0.13679902255535125732	-0.14452999830245971680	9.79869174957275390625
1731583938.3769521713	-0.89013503322961662345	-0.76545495820704934076	121.09184722748454987595	0.00029307609656825662	-0.00031686577131040394	0.00099314749240875244	0.13673163950443267822	-0.14455042779445648193	9.79925251007080078125
1731583938.3769700527	-0.89014025309045874401	-0.76547537702957879624	121.09187273447435018170	0.00027717670309357345	-0.00033993466058745980	0.00101847178302705288	0.13665047287940979004	-0.14462816715240478516	9.79977130889892578125
1731583938.3866519928	-0.89004374774853645125	-0.76546801832510558139	121.09187524491107978974	0.00024423893773928285	-0.00034691678592935205	0.00107031653169542551	0.13685849308967590332	-0.14464224874973297119	9.79915618896484375000
1731583938.3866841793	-0.89004155298515530426	-0.76548759425763068798	121.09189812685008291737	0.00025486951926723123	-0.00035664442111738026	0.00106661766767501831	0.13737702369689941406	-0.14469681680202484131	9.79947185516357421875
1731583938.3867063522	-0.89003284740437405009	-0.76550803614639506556	121.09191890038277961139	0.00030164321651682258	-0.00036124032340012491	0.00108490244019776583	0.13772793114185333252	-0.14478507637977600098	9.79895210266113281250
1731583938.3867962360	-0.89002163714111692805	-0.76552276279754982724	121.09193297515514586848	0.00032045104308053851	-0.00032029137946665287	0.00113597791641950607	0.13810823857784271240	-0.14490628242492675781	9.79911804199218750000
1731583938.3963692188	-0.88992599671741123846	-0.76551894507387607813	121.09191181810575699274	0.00023686210624873638	-0.00032457979978062212	0.00112235988490283489	0.13763125240802764893	-0.14488746225833892822	9.79973411560058593750
1731583938.3963975906	-0.88991375615833701040	-0.76552548653057461703	121.09192466354107864390	0.00023000691726338118	-0.00029031190206296742	0.00111745297908782959	0.13786533474922180176	-0.14497973024845123291	9.79959583282470703125
1731583938.3964800835	-0.88989939685227414934	-0.76552856039606831384	121.09193670489128180634	0.00024431888596154749	-0.00026566215092316270	0.00112612894736230373	0.13794064521789550781	-0.14518988132476806641	9.80009651184082031250
1731583938.3965513706	-0.88988487922953007914	-0.76552930365540083901	121.09195132522938820330	0.00024447031319141388	-0.00024881141143850982	0.00111106410622596741	0.13788072764873504639	-0.14492249488830566406	9.79997539520263671875
1731583938.4059538841	-0.88979017113969582908	-0.76553271685898072185	121.09192628898966859197	0.00029889371944591403	-0.00025331976939924061	0.00117014697752892971	0.13804659247398376465	-0.14514420926570892334	9.80083179473876953125
1731583938.4059815407	-0.88977126654054405908	-0.76553784106939326559	121.09193140787215270393	0.00030434879590757191	-0.00029067698051221669	0.00119624286890029907	0.13826872408390045166	-0.14532053470611572266	9.80020999908447265625
1731583938.4060342312	-0.88975464330278919434	-0.76554661800910139835	121.09193440610619063591	0.00028787090559490025	-0.00031605517142452300	0.00121324812062084675	0.13876090943813323975	-0.14545159041881561279	9.80003833770751953125
1731583938.4062044621	-0.88973845980143750900	-0.76556300756154282983	121.09193958370917698630	0.00028398120775818825	-0.00036834762431681156	0.00119943707250058651	0.13882903754711151123	-0.14553171396255493164	9.79998779296875000000
1731583938.4157104492	-0.88963299684459640204	-0.76555294058100631371	121.09190805707049776174	0.00030163789051584899	-0.00031006222707219422	0.00122069288045167923	0.13894924521446228027	-0.14523433148860931396	9.80060863494873046875
1731583938.4157502651	-0.88961933878978671775	-0.76557168549836962512	121.09190793642113703754	0.00030313435127027333	-0.00029642140725627542	0.00122265517711639404	0.13906803727149963379	-0.14528766274452209473	9.80129814147949218750
1731583938.4158351421	-0.88960360677418970354	-0.76559741915341639196	121.09190870994842725850	0.00031749260961078107	-0.00034288479946553707	0.00121759797912091017	0.13904958963394165039	-0.14523628354072570801	9.80146884918212890625
1731583938.4158854485	-0.88958684790535835774	-0.76562951684838931321	121.09190751391770390910	0.00032466289121657610	-0.00038476171903312206	0.00123271381016820669	0.13959042727947235107	-0.14514900743961334229	9.80113601684570312500
1731583938.4252951145	-0.88947024021627318913	-0.76555528112891979564	121.09190498312256067948	0.00033144760527648032	-0.00027865913580171764	0.00121199560817331076	0.13972559571266174316	-0.14518733322620391846	9.80211544036865234375
1731583938.4253213406	-0.88945826518015058681	-0.76559203735733538654	121.09190367268104182585	0.00032154476502910256	-0.00031258916715160012	0.00122943520545959473	0.14001829922199249268	-0.14496177434921264648	9.80196571350097656250
1731583938.4254429340	-0.88944506123721867041	-0.76563159695978866282	121.09189703586372388600	0.00033100150176323950	-0.00032813416328281164	0.00126848020590841770	0.14026008546352386475	-0.14508327841758728027	9.80243968963623046875
1731583938.4256010056	-0.88943440794252504045	-0.76567162479416406295	121.09188603663255889842	0.00031389755895361304	-0.00032697411370463669	0.00130041525699198246	0.14052003622055053711	-0.14494322240352630615	9.80295085906982421875
1731583938.4350435734	-0.88931142981295030481	-0.76555183818771344040	121.09186277922236740778	0.00033539420110173523	-0.00020658767607528716	0.00132855656556785107	0.14072279632091522217	-0.14516365528106689453	9.80195522308349609375
1731583938.4350743294	-0.88928567501915600779	-0.76558241057751308389	121.09184843431910394429	0.00039859866956248879	-0.00019237403466831893	0.00130833685398101807	0.14103361964225769043	-0.14518927037715911865	9.80185222625732421875
1731583938.4351291656	-0.88925394179607608613	-0.76561175606705933472	121.09183708273661750354	0.00043923812336288393	-0.00017852046585176140	0.00128849141765385866	0.14154629409313201904	-0.14501634240150451660	9.80204296112060546875
1731583938.4352178574	-0.88921596107393718889	-0.76563680092016717094	121.09182496633292203114	0.00048168009379878640	-0.00014359857595991343	0.00129542790818959475	0.14192149043083190918	-0.14507657289505004883	9.80169868469238281250
1731583938.4447193146	-0.88909785919560235801	-0.76551875883545350554	121.09176975336993109522	0.00046757192467339337	-0.00020514182688202709	0.00137457321397960186	0.14139290153980255127	-0.14481295645236968994	9.80181503295898437500
1731583938.4447517395	-0.88905170579348602455	-0.76553754317759858949	121.09176180072330453186	0.00047720226575620472	-0.00018168990209233016	0.00134135782718658447	0.14149183034896850586	-0.14477178454399108887	9.80209159851074218750
1731583938.4447789192	-0.88899999928949824390	-0.76555693782547862281	121.09175393509070772780	0.00051308167167007923	-0.00018253926828037947	0.00134275271557271481	0.14148592948913574219	-0.14462922513484954834	9.80230236053466796875
1731583938.4542713165	-0.88889433500579273506	-0.76545414323265881240	121.09168553257853773175	0.00048757481272332370	-0.00013656480587087572	0.00135207595303654671	0.14096809923648834229	-0.14406953752040863037	9.80283069610595703125
1731583938.4542996883	-0.88884492006062243430	-0.76546212311290862118	121.09167099452190541342	0.00047154063940979540	-0.00009400276030646637	0.00135070178657770157	0.14103847742080688477	-0.14383061230182647705	9.80256462097167968750
1731583938.4544026852	-0.88879626697106994815	-0.76546972701255067140	121.09165756465199592640	0.00046275558997876942	-0.00008849803998600692	0.00134415924549102783	0.14146237075328826904	-0.14396272599697113037	9.80206871032714843750
1731583938.4546158314	-0.88874367866414971662	-0.76547612018894017893	121.09164608930586837232	0.00048664337373338640	-0.00007705710595473647	0.00133179512340575457	0.14152356982231140137	-0.14410318434238433838	9.80171871185302734375
1731583938.4640264511	-0.88866651000200003185	-0.76531321525672901807	121.09158509649091683968	0.00043662596726790071	0.00000720949265087256	0.00132863584440201521	0.14071050286293029785	-0.14390365779399871826	9.80132961273193359375
1731583938.4640517235	-0.88861568620162456611	-0.76532503013407970904	121.09157045299787114345	0.00042575277620926499	-0.00002187228892580606	0.00132748694159090519	0.14099916815757751465	-0.14400286972522735596	9.80177211761474609375
1731583938.4641802311	-0.88856530725190263631	-0.76534070522443953255	121.09155370470676871264	0.00041881951619870961	-0.00004503879608819261	0.00134262442588806152	0.14109151065349578857	-0.14411684870719909668	9.80229091644287109375
1731583938.4643070698	-0.88851424326226613459	-0.76536053772100065551	121.09153770552813966788	0.00041945267003029585	-0.00006960652535781264	0.00133793614804744720	0.14111396670341491699	-0.14390155673027038574	9.80232715606689453125
1731583938.4736630917	-0.88846006382860520656	-0.76521298899947221006	121.09147862549389174092	0.00041370643884874880	-0.00001462087493564468	0.00139327335637062788	0.14022375643253326416	-0.14421303570270538330	9.80212306976318359375
1731583938.4737348557	-0.88841597671826200155	-0.76523731178364229333	121.09145252631606126670	0.00038631263305433095	-0.00003911558087565936	0.00140789151191711426	0.14066338539123535156	-0.14443190395832061768	9.80172252655029296875
1731583938.4737946987	-0.88837461752952096017	-0.76527042884770091202	121.09142671364838861336	0.00036369371809996665	-0.00009481054439675063	0.00140520208515226841	0.14086146652698516846	-0.14417436718940734863	9.80163955688476562500
1731583938.4738259315	-0.88833382947726868828	-0.76530416051106520126	121.09139666260239209805	0.00035668516648001969	-0.00009315508941654116	0.00143495912197977304	0.14091324806213378906	-0.14427804946899414062	9.80187797546386718750
1731583938.4834764004	-0.88826937485478729695	-0.76508266526259960383	121.09134101980538389398	0.00037258068914525211	-0.00004344206899986602	0.00142626988235861063	0.14023414254188537598	-0.14386045932769775391	9.80078506469726562500
1731583938.4835131168	-0.88823926393595231676	-0.76511554149923066692	121.09131652460621353384	0.00035587701131589711	-0.00005837532080477104	0.00140069436747580767	0.14031291007995605469	-0.14340196549892425537	9.80161476135253906250
1731583938.4836585522	-0.88821056935807707333	-0.76514995890463666228	121.09129263511800900233	0.00034405881888233125	-0.00006239675713004544	0.00139653240330517292	0.14016517996788024902	-0.14341166615486145020	9.80142879486083984375
1731583938.4838936329	-0.88818435912278448363	-0.76517648059299470109	121.09126803391666271636	0.00032497459324076772	-0.00000044097194518145	0.00140286842361092567	0.14055313169956207275	-0.14307358860969543457	9.80128479003906250000
1731583938.4933617115	-0.88810339001382587742	-0.76500327747547314239	121.09123629335192617873	0.00032227084739133716	-0.00012612137652467936	0.00135150586720556021	0.13907808065414428711	-0.14277319610118865967	9.80058574676513671875
1731583938.4934110641	-0.88807997394867976837	-0.76501474914998202070	121.09120962870173343617	0.00031598660279996693	-0.00007295610703295097	0.00135260086972266436	0.13884246349334716797	-0.14304792881011962891	9.79995536804199218750
1731583938.4934544563	-0.88805297797684434880	-0.76501570006663566215	121.09118450498795027670	0.00033949062344618142	0.00000416177454098943	0.00134266994427889585	0.13905552029609680176	-0.14288772642612457275	9.80069351196289062500
1731583938.4934744835	-0.88802889017006569894	-0.76501055433522879845	121.09116487992707789090	0.00031706024310551584	0.00005014695852878504	0.00130442192312330008	0.13892386853694915771	-0.14288666844367980957	9.80062389373779296875
1731583938.5029933453	-0.88796819062903276087	-0.76488243617144224817	121.09115801207110507676	0.00024682079674676061	0.00000046473840598082	0.00129771418869495392	0.13842561841011047363	-0.14268296957015991211	9.80051040649414062500
1731583938.5032138824	-0.88794888598621846132	-0.76486794717876305238	121.09114184152156212804	0.00024387988378293812	0.00000970065502770012	0.00130658608395606279	0.13850215077400207520	-0.14268775284290313721	9.80044937133789062500
1731583938.5032460690	-0.88792761923201912744	-0.76484681815848698516	121.09112537175445822868	0.00025613442994654179	0.00005667709410772659	0.00130987237207591534	0.13836498558521270752	-0.14273513853549957275	9.79954624176025390625
1731583938.5032587051	-0.88790032166439336603	-0.76482413400331505926	121.09111076048748145695	0.00029643430025316775	0.00006793712964281440	0.00129741220735013485	0.13854633271694183350	-0.14261737465858459473	9.79941368103027343750
1731583938.5125930309	-0.88786594910427762972	-0.76470448207972974153	121.09108188270340633608	0.00024478480918332934	0.00005483184577315114	0.00126428983639925718	0.13732826709747314453	-0.14228005707263946533	9.79940986633300781250
1731583938.5126252174	-0.88783665449918747203	-0.76468979288632366043	121.09107714643567987878	0.00023580345441587269	0.00003100186222582124	0.00126792502123862505	0.13738916814327239990	-0.14215031266212463379	9.79984951019287109375
1731583938.5127117634	-0.88781025683211856059	-0.76467533467706283457	121.09107315576619612330	0.00021256734908092767	0.00003029149957001209	0.00126460439059883356	0.13720245659351348877	-0.14198312163352966309	9.80012893676757812500
1731583938.5131661892	-0.88778270250068469505	-0.76466059667140418021	121.09107159004747700237	0.00021763300173915923	0.00003336035297252238	0.00124950800091028214	0.13717579841613769531	-0.14177386462688446045	9.80007839202880859375
1731583938.5222947598	-0.88774850224013757138	-0.76449977220556775137	121.09106290027631303019	0.00024963135365396738	0.00011885521234944463	0.00123431044630706310	0.13634258508682250977	-0.14174170792102813721	9.80004501342773437500
1731583938.5223679543	-0.88772216597022268747	-0.76448502271689811050	121.09105930573286968865	0.00023581090499646962	0.00012037903798045591	0.00124257814604789019	0.13629099726676940918	-0.14189232885837554932	9.79935359954833984375
1731583938.5224792957	-0.88769612251518392743	-0.76447118350108267393	121.09105472000311465308	0.00023134431103244424	0.00011563452426344156	0.00125083210878074169	0.13608606159687042236	-0.14173893630504608154	9.79910278320312500000
1731583938.5228071213	-0.88766823420300089431	-0.76446153662720273125	121.09105231334950758537	0.00024148247030097991	0.00008842623356031254	0.00123682687990367413	0.13585147261619567871	-0.14160005748271942139	9.79950046539306640625
1731583938.5322253704	-0.88757067091529950886	-0.76428554105101464966	121.09106181489624987080	0.00041338184382766485	0.00009006350592244416	0.00121069722808897495	0.13534949719905853271	-0.14145161211490631104	9.79849910736083984375
1731583938.5322558880	-0.88754326201835587185	-0.76427599799811107850	121.09105932123497950670	0.00040164592792280018	0.00007572025788249448	0.00120677798986434937	0.13508522510528564453	-0.14134420454502105713	9.79887294769287109375
1731583938.5328590870	-0.88751545105745377473	-0.76425817897515080368	121.09106221195258967782	0.00040296354563906789	0.00013606718857772648	0.00117151730228215456	0.13498380780220031738	-0.14114132523536682129	9.79902362823486328125
1731583938.5418801308	-0.88738408201461616009	-0.76413751523644968255	121.09106899017109526540	0.00040179817005991936	0.00003229317371733487	0.00121795083396136761	0.13400545716285705566	-0.14130035042762756348	9.79845142364501953125
1731583938.5419237614	-0.88736228049186982592	-0.76410654510809672413	121.09106645515970512861	0.00037036766298115253	0.00006959287566132843	0.00121517502702772617	0.13416688144207000732	-0.14118096232414245605	9.79838180541992187500
1731583938.5419900417	-0.88734297383641447254	-0.76407177964115724489	121.09106478579354870817	0.00035940858651883900	0.00009336324728792533	0.00119337439537048340	0.13408891856670379639	-0.14150115847587585449	9.79806709289550781250
1731583938.5424995422	-0.88732857748596472014	-0.76403223356705340930	121.09106729619048792301	0.00032446152181364596	0.00012580194743350148	0.00116607616655528545	0.13373152911663055420	-0.14129978418350219727	9.79826068878173828125
1731583938.5517981052	-0.88723177006210485196	-0.76399205847706741501	121.09107605398696705379	0.00030209525721147656	0.00001128654639614979	0.00115423509851098061	0.13400261104106903076	-0.14135421812534332275	9.79836940765380859375
1731583938.5518302917	-0.88721637907430295211	-0.76394037772954159760	121.09107420444462377418	0.00029712918330915272	0.00006411227514036000	0.00115906447172164917	0.13360375165939331055	-0.14128617942333221436	9.79797458648681640625
1731583938.5518543720	-0.88719844520552293421	-0.76388164674501246587	121.09107037115910543434	0.00031728186877444386	0.00011061481200158596	0.00116585788782685995	0.13362568616867065430	-0.14127875864505767822	9.79792594909667968750
1731583938.5519759655	-0.88718329957701047572	-0.76381961974505141466	121.09106391989945450405	0.00029754429124295712	0.00012870501086581498	0.00118514418136328459	0.13348262012004852295	-0.14136368036270141602	9.79688453674316406250
1731583938.5616819859	-0.88711839477924547825	-0.76381235076706632814	121.09111546576247064877	0.00018197861209046096	0.00003922253745258786	0.00120865390636026859	0.13369077444076538086	-0.14112538099288940430	9.79750919342041015625
1731583938.5618579388	-0.88710581396683529931	-0.76375414304372946095	121.09110545402347725030	0.00016915056039579213	0.00002672525806701742	0.00121170282363891602	0.13342320919036865234	-0.14106379449367523193	9.79755115509033203125
1731583938.5618910789	-0.88709428057038541837	-0.76369810269723037432	121.09109992571234215575	0.00016315268294420093	0.00000506491505802842	0.00120641465764492750	0.13318778574466705322	-0.14075009524822235107	9.79767799377441406250
1731583938.5619151592	-0.88708527318192975653	-0.76365065762209227707	121.09109234508844110678	0.00014453368203248829	-0.00006047892020433210	0.00122080813162028790	0.13292038440704345703	-0.14059476554393768311	9.79782390594482421875
1731583938.5713653564	-0.88709146368220770373	-0.76368069919105552312	121.09116366180222712501	0.00003064330303459428	-0.00008535707456758246	0.00120481057092547417	0.13383239507675170898	-0.14056442677974700928	9.79762744903564453125
1731583938.5713987350	-0.88708481937517036364	-0.76363600989047342171	121.09115738658226746338	0.00000710787571733817	-0.00007471440039807931	0.00119384378194808960	0.13381765782833099365	-0.14053536951541900635	9.79723358154296875000
1731583938.5714263916	-0.88707750847120026005	-0.76359358020706413761	121.09115605239378510305	0.00001179301125375787	-0.00009422347648069263	0.00117528019472956657	0.13375978171825408936	-0.14049683511257171631	9.79689693450927734375
1731583938.5714848042	-0.88707199723839491590	-0.76354881692566056728	121.09115340417952211283	-0.00000275973434327170	-0.00008248093945439905	0.00118582078721374273	0.13363692164421081543	-0.14042587578296661377	9.79678630828857421875
1731583938.5810573101	-0.88709869413906605740	-0.76358022968080385695	121.09124499428662602440	0.00001338893525826279	-0.00010793012188514695	0.00112005101982504129	0.13378858566284179688	-0.14044277369976043701	9.79689121246337890625
1731583938.5810949802	-0.88709574422870407506	-0.76354369091743312659	121.09124642821200268372	0.00000584872623221599	-0.00010220704280072823	0.00111725181341171265	0.13347098231315612793	-0.14009954035282135010	9.79771423339843750000
1731583938.5812046528	-0.88709400928027704047	-0.76351042177552130852	121.09124510686007170079	-0.00000212979216485110	-0.00012760810204781592	0.00110939901787787676	0.13312219083309173584	-0.13987652957439422607	9.79818344116210937500
1731583938.5812282562	-0.88709118020834532015	-0.76347621812604815617	121.09124535704756908672	0.00000390777449865709	-0.00012435625831130892	0.00109907472506165504	0.13292150199413299561	-0.13970555365085601807	9.79822349548339843750
1731583938.5911333561	-0.88709682454059712864	-0.76354274142243649948	121.09138831255751256322	0.00007024940714472905	-0.00018348344019614160	0.00107359187677502632	0.13379800319671630859	-0.14034104347229003906	9.79811763763427734375
1731583938.5911853313	-0.88708602746641096459	-0.76350337604639439970	121.09139219680406540647	0.00008757414616411552	-0.00016602872346993536	0.00107606500387191772	0.13350330293178558350	-0.14033666253089904785	9.79774570465087890625
1731583938.5912020206	-0.88707489139195050409	-0.76346093749131138662	121.09139853878713211088	0.00009453208622289822	-0.00015246596012730151	0.00109768123365938663	0.13344597816467285156	-0.14042612910270690918	9.79792785644531250000
1731583938.5912568569	-0.88706569873931861991	-0.76341327738586850504	121.09140628064272959818	0.00007904459926066920	-0.00012088185758329928	0.00108980713412165642	0.13276059925556182861	-0.14030291140079498291	9.79776096343994140625
1731583938.6006641388	-0.88706018938328656809	-0.76353037082036634420	121.09155244258585071293	0.00005768669143435545	-0.00025661714607849717	0.00108356529381126165	0.13343273103237152100	-0.14020253717899322510	9.79875755310058593750
1731583938.6007015705	-0.88705511045484342070	-0.76348163120918199898	121.09155969003728614553	0.00005128981501911767	-0.00026669350336305797	0.00109077244997024536	0.13294167816638946533	-0.14030559360980987549	9.79864120483398437500
1731583938.6007542610	-0.88705025502847045793	-0.76343038226276704883	121.09156563780436499655	0.00005030272586736828	-0.00025387661298736930	0.00107851298525929451	0.13286639750003814697	-0.13999564945697784424	9.79857730865478515625
1731583938.6007907391	-0.88704679098688099526	-0.76338086692055517890	121.09157157359175016609	0.00003922960604541004	-0.00027328424039296806	0.00107968796510249376	0.13287261128425598145	-0.14024062454700469971	9.79791355133056640625
1731583938.6104488373	-0.88707686834826660061	-0.76356528197826167847	121.09172554834788115841	-0.00002370906076976098	-0.00032972873304970562	0.00106086686719208956	0.13376076519489288330	-0.14061692357063293457	9.79907321929931640625
1731583938.6104853153	-0.88707842210739829003	-0.76352159156754273450	121.09173227522427396252	-0.00005571542715188116	-0.00033408400486223400	0.00105272233486175537	0.13368435204029083252	-0.14074450731277465820	9.79938602447509765625
1731583938.6105241776	-0.88708081860258569673	-0.76348258344622377258	121.09174255439415901492	-0.00005927349411649629	-0.00037388366763480008	0.00103897973895072937	0.13299266993999481201	-0.14076896011829376221	9.79949188232421875000
1731583938.6105501652	-0.88708842319360192707	-0.76344921218905448246	121.09175481612555813626	-0.00009725287964101881	-0.00041981739923357964	0.00102624914143234491	0.13279983401298522949	-0.14101150631904602051	9.80008125305175781250
1731583938.6201591492	-0.88716308081306827216	-0.76363377627343165255	121.09189741288304276168	-0.00015647694817744195	-0.00041063761455006897	0.00101180362980812788	0.13373868167400360107	-0.14136986434459686279	9.79998874664306640625
1731583938.6201927662	-0.88717288912131242462	-0.76361015376729068915	121.09191321169060984175	-0.00015908479690551758	-0.00043280419777147472	0.00100361555814743042	0.13362026214599609375	-0.14116615056991577148	9.80006027221679687500
1731583938.6202592850	-0.88718062278676690369	-0.76359274196192905571	121.09193016310564416926	-0.00014424775145016611	-0.00047948621795512736	0.00096406001830473542	0.13350944221019744873	-0.14153586328029632568	9.79956722259521484375
1731583938.6204288006	-0.88719002703222593631	-0.76357949607440389617	121.09194174959952761128	-0.00015692594752181321	-0.00051395321497693658	0.00100278737954795361	0.13349817693233489990	-0.14155499637126922607	9.79950618743896484375
1731583938.6288442612	-0.88727980283206275836	-0.76373951503843229283	121.09205604363478414598	-0.00017064779240172356	-0.00042240362381562591	0.00109246175270527601	0.13437442481517791748	-0.14185251295566558838	9.79951763153076171875
1731583938.6288826466	-0.88728856537386924241	-0.76373472096745831372	121.09206374340448064686	-0.00015544891357421875	-0.00045522299478761852	0.00108372420072555542	0.13420824706554412842	-0.14203347265720367432	9.80000495910644531250
1731583938.6289238930	-0.88729023950803054266	-0.76372522268700671066	121.09207323802314704153	-0.00011154044477734715	-0.00042474328074604273	0.00103061855770647526	0.13415350019931793213	-0.14166250824928283691	9.80077934265136718750
1731583938.6396682262	-0.88734008938319930415	-0.76381912434139620505	121.09212652266040777249	-0.00010430073598399758	-0.00044631925993598998	0.00106313149444758892	0.13449211418628692627	-0.14192005991935729980	9.80039882659912109375
1731583938.6398246288	-0.88734117924824085222	-0.76380695280927668467	121.09213643830514683941	-0.00009992717241402715	-0.00044217702816240489	0.00105676800012588501	0.13450954854488372803	-0.14186999201774597168	9.80007362365722656250
1731583938.6398425102	-0.88733625182881414872	-0.76379448999129817555	121.09214887164085894256	-0.00006016906263539568	-0.00044350518146529794	0.00104079348966479301	0.13480539619922637939	-0.14195266366004943848	9.79996681213378906250
1731583938.6402912140	-0.88732751360572759136	-0.76378086664159916541	121.09215976605167952584	-0.00003477441714494489	-0.00043845904292538762	0.00105111731681972742	0.13477843999862670898	-0.14213275909423828125	9.79951667785644531250
1731583938.6495499611	-0.88738756362534743083	-0.76393363403168867976	121.09220301321209944945	0.00000573919396629208	-0.00044660695130005479	0.00107620318885892630	0.13559073209762573242	-0.14156210422515869141	9.80009269714355468750
1731583938.6495797634	-0.88738185660010837630	-0.76391537964319522480	121.09221785958624195700	-0.00002786513687169645	-0.00041878965566866100	0.00103969126939773560	0.13555730879306793213	-0.14147697389125823975	9.80018234252929687500
1731583938.6496262550	-0.88737656379195073431	-0.76389868470569954884	121.09223111135912631653	-0.00003284272679593414	-0.00043411293881945312	0.00105284235905855894	0.13548310101032257080	-0.14149923622608184814	9.79992294311523437500
1731583938.6497650146	-0.88737071456114147150	-0.76388034700364493279	121.09223629591116377924	-0.00002939934893220197	-0.00043003531754948199	0.00106907472945749760	0.13556014001369476318	-0.14126873016357421875	9.79966545104980468750
1731583938.6593842506	-0.88742193566060489918	-0.76402290675235295936	121.09227116194875861765	-0.00005691944897989742	-0.00041412684367969632	0.00104067649226635695	0.13625988364219665527	-0.14158535003662109375	9.80054187774658203125
1731583938.6594164371	-0.88741833954466531331	-0.76400908157843205881	121.09228582256793060878	-0.00006772574124624953	-0.00041926649282686412	0.00102513283491134644	0.13644734025001525879	-0.14169396460056304932	9.79997825622558593750
1731583938.6595284939	-0.88741949799060793058	-0.76399945254041579101	121.09229918812400228489	-0.00010313406528439373	-0.00045234052231535316	0.00103581883013248444	0.13645191490650177002	-0.14173047244548797607	9.80009746551513671875
1731583938.6595475674	-0.88742231124918191654	-0.76399356656986749936	121.09230813553347161360	-0.00011781037028413266	-0.00048178643919527531	0.00104154553264379501	0.13621366024017333984	-0.14178666472434997559	9.79993915557861328125
1731583938.6680982113	-0.88749270725312767727	-0.76407960787337414477	121.09234270411747047547	-0.00011314551375107840	-0.00035881550866179168	0.00101071188692003489	0.13689164817333221436	-0.14212752878665924072	9.79976558685302734375
1731583938.6681632996	-0.88749378766817121900	-0.76408741203928787211	121.09235106059423969782	-0.00011206414637854323	-0.00042312589357607067	0.00101924687623977661	0.13691927492618560791	-0.14201810956001281738	9.79995632171630859375
1731583938.6682059765	-0.88749952339564508463	-0.76409792471104087674	121.09235611937816656791	-0.00014640011067967862	-0.00044300849549472332	0.00104307383298873901	0.13702726364135742188	-0.14180354773998260498	9.79944992065429687500
1731583938.6685967445	-0.88750698334285316182	-0.76411146483514014172	121.09236008262524819656	-0.00015729085134807974	-0.00046537996968254447	0.00104514928534626961	0.13745620846748352051	-0.14186573028564453125	9.79931354522705078125
1731583938.6778855324	-0.88758768321393177736	-0.76414957264618343924	121.09241363319932816012	-0.00017194609972648323	-0.00035180753911845386	0.00097342947265133262	0.13683789968490600586	-0.14160586893558502197	9.79911899566650390625
1731583938.6779315472	-0.88759787626009167827	-0.76416891715436185972	121.09241868088400906345	-0.00018737462232820690	-0.00038187947939150035	0.00096995389321818948	0.13701650500297546387	-0.14148350059986114502	9.79990577697753906250
1731583938.6780281067	-0.88760949442142966781	-0.76419317232259831307	121.09242189451828153324	-0.00019876491569448262	-0.00041492204763926566	0.00098229513969272375	0.13681633770465850830	-0.14126199483871459961	9.80005741119384765625
1731583938.6780452728	-0.88761563753662708898	-0.76421868239769130682	121.09243132747320714770	-0.00015840843843761832	-0.00042253153515048325	0.00097046094015240669	0.13681873679161071777	-0.14099137485027313232	9.80076217651367187500
1731583938.6887290478	-0.88770436808045205535	-0.76423246770581465537	121.09251620752093003830	-0.00021222350187599659	-0.00042487485916353762	0.00094325089594349265	0.13660033047199249268	-0.14151878654956817627	9.79970550537109375000
1731583938.6888177395	-0.88771176323444034306	-0.76425868071076874521	121.09253027924012258154	-0.00020900367235299200	-0.00042150166700594127	0.00091981893638148904	0.13660168647766113281	-0.14156985282897949219	9.79933261871337890625
1731583938.6888391972	-0.88771596103731753580	-0.76428338434281306579	121.09254967802837654745	-0.00018938771972898394	-0.00040841219015419483	0.00088388723088428378	0.13712206482887268066	-0.14173568785190582275	9.79931926727294921875
1731583938.6888828278	-0.88771817175178324710	-0.76430300880768919924	121.09256641878238269783	-0.00017580327403265983	-0.00036995171103626490	0.00087716145208105445	0.13716123998165130615	-0.14202694594860076904	9.79908466339111328125
1731583938.6985497475	-0.88782810576878812281	-0.76432310988951090991	121.09265921689154765772	-0.00020968588069081306	-0.00035688278148882091	0.00083798379637300968	0.13677079975605010986	-0.14154726266860961914	9.79966068267822265625
1731583938.6985778809	-0.88783036447566243687	-0.76433908440116871130	121.09268561956747589647	-0.00021155177091713995	-0.00034342703293077648	0.00081202387809753418	0.13676147162914276123	-0.14177204668521881104	9.79995250701904296875
1731583938.6987977028	-0.88783537262306888582	-0.76435378188577196568	121.09271177938774144422	-0.00023366222740150988	-0.00033323658863082528	0.00081552250776439905	0.13676816225051879883	-0.14159850776195526123	9.79990386962890625000
1731583938.6988391876	-0.88783660431722610795	-0.76437366926746053153	121.09273597708198622058	-0.00020719453459605575	-0.00036615040153264999	0.00081115536158904433	0.13706216216087341309	-0.14159514009952545166	9.79973316192626953125
1731583938.7084469795	-0.88798527989759712398	-0.76435902862668470004	121.09280881592206924324	-0.00025393199757672846	-0.00030067146872170269	0.00082281709183007479	0.13673590123653411865	-0.14244182407855987549	9.80047988891601562500
1731583938.7085764408	-0.88798559172124069683	-0.76438642893387176436	121.09283204440646386502	-0.00024561581085436046	-0.00034194436739198864	0.00082479417324066162	0.13707184791564941406	-0.14236846566200256348	9.80024623870849609375
1731583938.7086057663	-0.88798332263022994315	-0.76441644608036063424	121.09285447123744461351	-0.00023109590983949602	-0.00035736442077904940	0.00083134183660149574	0.13736936450004577637	-0.14245700836181640625	9.80042076110839843750
1731583938.7090053558	-0.88798342697155363545	-0.76445398873823555697	121.09287997384950585911	-0.00024221226340159774	-0.00040557765169069171	0.00083143921801820397	0.13739666342735290527	-0.14251926541328430176	9.80056381225585937500
1731583938.7174129486	-0.88808697074764286761	-0.76441779195926151669	121.09294302189067593645	-0.00008467102452414110	-0.00036469483166001737	0.00081632548244670033	0.13710665702819824219	-0.14281655848026275635	9.79967498779296875000
1731583938.7174651623	-0.88808495460752490125	-0.76446104553799543169	121.09296833973786533534	-0.00008951124618761241	-0.00040489432285539806	0.00082407891750335693	0.13739047944545745850	-0.14271011948585510254	9.79986286163330078125
1731583938.7175045013	-0.88808011876918169225	-0.76451253074007052835	121.09299787987697527569	-0.00007252647628774866	-0.00045737531036138535	0.00079523283056914806	0.13780556619167327881	-0.14274452626705169678	9.79962062835693359375
1731583938.7260348797	-0.88814327957956817894	-0.76443937426692376569	121.09308304151028323759	-0.00007045907841529697	-0.00031868758378550410	0.00072722049662843347	0.13710057735443115234	-0.14251768589019775391	9.79980659484863281250
1731583938.7260682583	-0.88814319535057739685	-0.76449087577133889582	121.09310746609133957463	-0.00006433313683373854	-0.00034046199289150536	0.00073428056202828884	0.13729706406593322754	-0.14280022680759429932	9.79969978332519531250
1731583938.7260844707	-0.88814728191876501917	-0.76454534507319682479	121.09313140835143940421	-0.00009518112346995622	-0.00035495308111421764	0.00073775649070739746	0.13717995584011077881	-0.14304879307746887207	9.79986381530761718750
1731583938.7261531353	-0.88815533104313171275	-0.76460634991748643863	121.09315521142343641259	-0.00012433434312697500	-0.00039397011278197169	0.00073862349381670356	0.13751454651355743408	-0.14277225732803344727	9.80081653594970703125
1731583938.7358088493	-0.88819002135705837908	-0.76453714066014988315	121.09323405414727403695	-0.00012170262198196724	-0.00033153605181723833	0.00068755581742152572	0.13681222498416900635	-0.14318615198135375977	9.79960346221923828125
1731583938.7360117435	-0.88820359691599692908	-0.76458918005819165309	121.09325727011116669019	-0.00012311336467973888	-0.00029337403248064220	0.00067903101444244385	0.13751821219921112061	-0.14309309422969818115	9.80010986328125000000
1731583938.7360486984	-0.88821743496257554717	-0.76463532862317684646	121.09328303352634748080	-0.00012563633208628744	-0.00024507890339009464	0.00066179974237456918	0.13783073425292968750	-0.14320889115333557129	9.79975318908691406250
1731583938.7370181084	-0.88823239233120188096	-0.76467472573821582138	121.09330899038354800723	-0.00013391274842433631	-0.00019131261797156185	0.00066095776855945587	0.13836994767189025879	-0.14329436421394348145	9.79981136322021484375
1731583938.7466416359	-0.88827746383551520193	-0.76456586558117645147	121.09338785167068408555	-0.00016563154349569231	-0.00025961213395930827	0.00069880543742328882	0.13759535551071166992	-0.14387582242488861084	9.80007171630859375000
1731583938.7466754913	-0.88829153969165741689	-0.76459572800554986838	121.09340456519879580810	-0.00014796850155107677	-0.00022122260998003185	0.00070535391569137573	0.13769596815109252930	-0.14392220973968505859	9.79999923706054687500
1731583938.7467772961	-0.88830396032016945007	-0.76462041046769502195	121.09342192493602397008	-0.00013711322390008718	-0.00018047711637336761	0.00070053519448265433	0.13777038455009460449	-0.14378452301025390625	9.80041790008544921875
1731583938.7470538616	-0.88831708304003176302	-0.76464525008212835822	121.09344364558432971535	-0.00014321076741907746	-0.00017686763021629304	0.00066943466663360596	0.13775603473186492920	-0.14396022260189056396	9.80040740966796875000
1731583938.7564406395	-0.88836892971666880925	-0.76455721607198201539	121.09351439717761422799	-0.00015928749053273350	-0.00019538222113624215	0.00065258971881121397	0.13757728040218353271	-0.14431872963905334473	9.80025291442871093750
1731583938.7564718723	-0.88837938470133137603	-0.76457770739548436278	121.09354114482715658596	-0.00014133748481981456	-0.00018621233175508678	0.00065504014492034912	0.13792471587657928467	-0.14443176984786987305	9.80006599426269531250
1731583938.7565786839	-0.88838662208262375586	-0.76460043270471844679	121.09356829168751801262	-0.00011998442641925067	-0.00019823809270747006	0.00065200106473639607	0.13814170658588409424	-0.14470790326595306396	9.79947566986083984375
1731583938.7566015720	-0.88838727286488272661	-0.76462563816288653396	121.09359703669895225175	-0.00007547891436843202	-0.00021163446945138276	0.00064064352773129940	0.13803862035274505615	-0.14456383883953094482	9.79935550689697265625
1731583938.7660784721	-0.88841123458862880646	-0.76452464699806810255	121.09364571912334440640	-0.00001881821299321018	-0.00016192837210837752	0.00072030886076390743	0.13781674206256866455	-0.14494462311267852783	9.79901123046875000000
1731583938.7661135197	-0.88841810831025158635	-0.76455536167162252426	121.09367529784924499836	-0.00004299726424505934	-0.00020015981863252819	0.00073399394750595093	0.13749921321868896484	-0.14487020671367645264	9.79882717132568359375
1731583938.7661397457	-0.88842712093346087876	-0.76459074428586082384	121.09370198132319274009	-0.00005824243271490559	-0.00022823609469924122	0.00075487932190299034	0.13797864317893981934	-0.14469099044799804688	9.79973125457763671875
1731583938.7662518024	-0.88843494762505259565	-0.76463062974995754661	121.09373093009440935930	-0.00005061829506303184	-0.00025417879805900156	0.00073956896085292101	0.13837219774723052979	-0.14493523538112640381	9.79917812347412109375
1731583938.7758901119	-0.88839641594809304337	-0.76448383084947502120	121.09380575777601052323	0.00008086465095402673	-0.00017486730939708650	0.00066724006319418550	0.13767945766448974609	-0.14499220252037048340	9.79971408843994140625
1731583938.7759442329	-0.88841304434324475103	-0.76452613727756102424	121.09383178846599093959	0.00002284350921399891	-0.00019944456289522350	0.00068434327840805054	0.13814079761505126953	-0.14525052905082702637	9.79985332489013671875
1731583938.7759654522	-0.88843440186764466304	-0.76456972342104645435	121.09385974990652812266	-0.00000889551665750332	-0.00020169997878838331	0.00067098875297233462	0.13796621561050415039	-0.14560008049011230469	9.79978561401367187500
1731583938.7759907246	-0.88846346934860720435	-0.76461452846638988667	121.09388114547226678042	-0.00006028885763953440	-0.00020422950910869986	0.00071720202686265111	0.13810822367668151855	-0.14543977379798889160	9.80066299438476562500
1731583938.7857265472	-0.88839953961662554427	-0.76443096370312091370	121.09397380968999868855	-0.00001920919930853415	-0.00011518889368744567	0.00072173995431512594	0.13732223212718963623	-0.14600098133087158203	9.79903793334960937500
1731583938.7858588696	-0.88843505922015941767	-0.76446528465138707809	121.09399883269691144960	-0.00003480909435893409	-0.00007493790326407179	0.00071027874946594238	0.13739053905010223389	-0.14588446915149688721	9.79899215698242187500
1731583938.7858772278	-0.88847084649302221493	-0.76449583401051035558	121.09402491721817796133	-0.00003324161298223771	-0.00004189630635664798	0.00070365844294428825	0.13776627182960510254	-0.14596745371818542480	9.79903984069824218750
1731583938.7861804962	-0.88850841557685922290	-0.76451855740477059342	121.09405088346068168903	-0.00004203494245302863	0.00001918908128573094	0.00070569163653999567	0.13789962232112884521	-0.14604316651821136475	9.79860687255859375000
1731583938.7945244312	-0.88842365233318898454	-0.76433695936248802205	121.09414858046051222118	-0.00000761285355110886	-0.00005874152702745050	0.00069921120302751660	0.13794381916522979736	-0.14574432373046875000	9.79991722106933593750
1731583938.7945516109	-0.88846535697130679665	-0.76434550898444164613	121.09417766239874936218	-0.00003963707422371954	0.00000961127989285160	0.00072001665830612183	0.13764451444149017334	-0.14579851925373077393	9.79966831207275390625
1731583938.7946114540	-0.88850608181197643365	-0.76434459607064564324	121.09420390621005481080	-0.00002816919914039318	0.00007916433241916820	0.00074187462450936437	0.13754101097583770752	-0.14566271007061004639	9.80009460449218750000
1731583938.8044033051	-0.88841699599303369794	-0.76420612756892480899	121.09430910151110083461	-0.00000257116016655345	-0.00000552948085896787	0.00076098920544609427	0.13786002993583679199	-0.14558577537536621094	9.80006313323974609375
1731583938.8044378757	-0.88844671125623497776	-0.76420310609999075879	121.09432592925691096752	0.00002348041016375646	-0.00000296545931632863	0.00076813274063169956	0.13761830329895019531	-0.14583164453506469727	9.79969215393066406250
1731583938.8044488430	-0.88847563596608203351	-0.76419345195875976184	121.09434056824665049135	0.00003246964843128808	0.00004515798718784936	0.00078393518924713135	0.13798455893993377686	-0.14572596549987792969	9.79975700378417968750
1731583938.8044707775	-0.88849979611501761489	-0.76418152956619300742	121.09435831767501667855	0.00006870340439490974	0.00006296118954196572	0.00076205894583836198	0.13783663511276245117	-0.14600761234760284424	9.79913139343261718750
1731583938.8141713142	-0.88841634714459083444	-0.76401910016443719265	121.09444023254070543771	0.00009330758621217683	0.00012969854287803173	0.00076358957448974252	0.13821527361869812012	-0.14578607678413391113	9.79891490936279296875
1731583938.8142492771	-0.88843116870632332649	-0.76400716279991820468	121.09445554492162955285	0.00012651973520405591	0.00011429634469095618	0.00076701148645952344	0.13770040869712829590	-0.14590843021869659424	9.79891777038574218750
1731583938.8142602444	-0.88844478737808707525	-0.76399203668519166666	121.09446862755942220247	0.00013732913066633046	0.00013830514217261225	0.00078234076499938965	0.13764634728431701660	-0.14588242769241333008	9.79961681365966796875
1731583938.8143370152	-0.88845131161589796509	-0.76397368002776910867	121.09448007359941357208	0.00018917703710030764	0.00016248287283815444	0.00079341913806274533	0.13749702274799346924	-0.14590689539909362793	9.79967498779296875000
1731583938.8239147663	-0.88837148727556758399	-0.76382405585145318749	121.09452191930841991052	0.00021825038129463792	0.00020951623446308076	0.00081133138155564666	0.13738694787025451660	-0.14563944935798645020	9.79968929290771484375
1731583938.8240058422	-0.88837582088329758445	-0.76380696425763228152	121.09453186583380102093	0.00020609797502402216	0.00021877139806747437	0.00083497172454372048	0.13734418153762817383	-0.14593867957592010498	9.79926586151123046875
1731583938.8240375519	-0.88838117322716847468	-0.76379309199161726784	121.09454497497262082106	0.00020021742966491729	0.00019899071776308119	0.00081200042041018605	0.13734488189220428467	-0.14612409472465515137	9.79911613464355468750
1731583938.8240554333	-0.88838701796877972416	-0.76377754529458852240	121.09455746394399966448	0.00019848956435453147	0.00021323867258615792	0.00081596022937446833	0.13716326653957366943	-0.14580909907817840576	9.79940032958984375000
1731583938.8337912560	-0.88825622651115876405	-0.76355019582291738800	121.09459911828622580288	0.00028385236510075629	0.00021726188424509019	0.00083122664364054799	0.13777151703834533691	-0.14604035019874572754	9.79926776885986328125
1731583938.8338229656	-0.88826712035360055886	-0.76352777269289118234	121.09459515800011786268	0.00024182350898627192	0.00027980655431747437	0.00084445631364360452	0.13727474212646484375	-0.14573302865028381348	9.79955101013183593750
1731583938.8339259624	-0.88827423331571919718	-0.76350056372293750862	121.09459409222972681164	0.00027074958779849112	0.00031576916808262467	0.00082236347952857614	0.13735865056514739990	-0.14543963968753814697	9.79963302612304687500
1731583938.8339507580	-0.88828106081199931232	-0.76347270817279377919	121.09459420853136180085	0.00027522293385118246	0.00032235926482826471	0.00081183202564716339	0.13734646141529083252	-0.14559338986873626709	9.79927158355712890625
1731583938.8435349464	-0.88812254290364156528	-0.76328650383940932489	121.09463676451912306220	0.00029814126901328564	0.00019105206592939794	0.00082207936793565750	0.13686925172805786133	-0.14563538134098052979	9.80044078826904296875
1731583938.8435645103	-0.88813187791736825094	-0.76325297965956784285	121.09463425895398813736	0.00028942528297193348	0.00022606551647186279	0.00082927942276000977	0.13669623434543609619	-0.14578621089458465576	9.80015850067138671875
1731583938.8438084126	-0.88814450183944482209	-0.76321042701541852438	121.09463273462296228900	0.00026944011915475130	0.00028933087014593184	0.00082104647299274802	0.13639092445373535156	-0.14590373635292053223	9.79990196228027343750
1731583938.8438742161	-0.88815741600543229861	-0.76316168624473101900	121.09462743407220841618	0.00027112511452287436	0.00033161166356876493	0.00084551167674362659	0.13626895844936370850	-0.14585624635219573975	9.80040264129638671875
1731583938.8533139229	-0.88800750068819811478	-0.76301377716073404134	121.09464502965096244225	0.00025200669188052416	0.00029961660038679838	0.00086608948186039925	0.13695178925991058350	-0.14577509462833404541	9.80048274993896484375
1731583938.8533430099	-0.88801337112984657374	-0.76295401077675450985	121.09463929509593071998	0.00026128444005735219	0.00033833831548690796	0.00086234515765681863	0.13680528104305267334	-0.14590135216712951660	9.80025386810302734375
1731583938.8533627987	-0.88801443864875484469	-0.76288863350801949803	121.09463517189755066283	0.00029693951364606619	0.00037525338120758533	0.00084880180656909943	0.13677123188972473145	-0.14589367806911468506	9.79992961883544921875
1731583938.8535881042	-0.88801466335777090588	-0.76282330680930232614	121.09462646149228248760	0.00030525334295816720	0.00037152547156438231	0.00087823340436443686	0.13666500151157379150	-0.14571259915828704834	9.79918479919433593750
1731583938.8628544807	-0.88786444927745911126	-0.76264250095584018574	121.09464124028210108008	0.00032776655280031264	0.00041597109520807862	0.00095027365023270249	0.13677066564559936523	-0.14637993276119232178	9.79995632171630859375
1731583938.8629257679	-0.88785900657553984416	-0.76257672846229673791	121.09463709235325268310	0.00034835192491300404	0.00043419003486633301	0.00095246738055720925	0.13646934926509857178	-0.14636796712875366211	9.80023479461669921875
1731583938.8630931377	-0.88785015517968712828	-0.76251121043446290493	121.09463268817756897988	0.00037374824751168489	0.00043007161002606153	0.00095262826653197408	0.13607987761497497559	-0.14634555578231811523	9.80048942565917968750
1731583938.8631677628	-0.88783937608245633299	-0.76245047557305867247	121.09463043990166397634	0.00038836535532027483	0.00039457666571252048	0.00093551928875967860	0.13596545159816741943	-0.14605507254600524902	9.80074882507324218750
1731583938.8737611771	-0.88770094818710276741	-0.76222687869583805043	121.09463927822611140073	0.00034432750544510782	0.00048905314179137349	0.00098260620143264532	0.13549792766571044922	-0.14664250612258911133	9.80042743682861328125
1731583938.8737914562	-0.88768753103852215958	-0.76216395792632307682	121.09463511647379618807	0.00035527351428754628	0.00049660354852676392	0.00098442286252975464	0.13563500344753265381	-0.14664152264595031738	9.80046367645263671875
1731583938.8738729954	-0.88767106076022128658	-0.76210205854501167355	121.09463276424935429532	0.00037693168269470334	0.00048838934162631631	0.00097033655038103461	0.13512332737445831299	-0.14673464000225067139	9.79991054534912109375
1731583938.8739533424	-0.88765460370596960260	-0.76204497227715128904	121.09463430171530262669	0.00037679413799196482	0.00045399123337119818	0.00094174582045525312	0.13491325080394744873	-0.14670662581920623779	9.80039596557617187500
1731583938.8823823929	-0.88750269579267471176	-0.76177992513030889921	121.09465293529785867577	0.00041692270315252244	0.00047884366358630359	0.00098762242123484612	0.13538013398647308350	-0.14728848636150360107	9.79960155487060546875
1731583938.8826522827	-0.88748921446773498811	-0.76172861414118275825	121.09466285420654685367	0.00040566924144513905	0.00047859549522399902	0.00096876180032268167	0.13512855768203735352	-0.14724515378475189209	9.80003738403320312500
1731583938.8826870918	-0.88747527705243411944	-0.76167212017734686746	121.09467416272173068137	0.00040977442404255271	0.00051507598254829645	0.00096029706764966249	0.13513132929801940918	-0.14719744026660919189	9.80020332336425781250
1731583938.8925051689	-0.88729575602035515303	-0.76142097274435016629	121.09474540855177338017	0.00048605544725432992	0.00045249128015711904	0.00091745867393910885	0.13459666073322296143	-0.14725048840045928955	9.80036163330078125000
1731583938.8925297260	-0.88727512232159044814	-0.76135802286993548016	121.09476133426500155110	0.00051344832172617316	0.00046863415627740324	0.00088742317166179419	0.13480751216411590576	-0.14743101596832275391	9.80028820037841796875
1731583938.8925709724	-0.88725526470671145507	-0.76129065809076001958	121.09478024709795818126	0.00051196670392528176	0.00049724429845809937	0.00088126963237300515	0.13436281681060791016	-0.14761492609977722168	9.79982662200927734375
1731583938.8928792477	-0.88723636587264742559	-0.76122113186214279690	121.09479888624190380142	0.00050654169172048569	0.00051035726210102439	0.00088436889927834272	0.13416960835456848145	-0.14768368005752563477	9.79995441436767578125
1731583938.9012875557	-0.88703809854182302796	-0.76102309796088352112	121.09490184925653011305	0.00050588714657351375	0.00043309055035933852	0.00086243392433971167	0.13420258462429046631	-0.14785468578338623047	9.79964256286621093750
1731583938.9013388157	-0.88702238644881714613	-0.76095416391280890078	121.09492394822854066661	0.00050433055730536580	0.00043482621549628675	0.00082655710866674781	0.13383154571056365967	-0.14765240252017974854	9.79986000061035156250
1731583938.9013574123	-0.88700610304690863384	-0.76088450381042127546	121.09494391695210424587	0.00051306188106536865	0.00043576210737228394	0.00083801156142726541	0.13364002108573913574	-0.14759936928749084473	9.79953384399414062500
1731583938.9013807774	-0.88698749947556199125	-0.76081369046594105043	121.09496627585053829534	0.00053078989731147885	0.00044117972720414400	0.00082190445391461253	0.13352903723716735840	-0.14782561361789703369	9.79888439178466796875
1731583938.9121932983	-0.88682628374394634196	-0.76066086009014399760	121.09505979557764021592	0.00054925534641370177	0.00041875950410030782	0.00084940309170633554	0.13346463441848754883	-0.14763100445270538330	9.79948711395263671875
1731583938.9122288227	-0.88680294662897274360	-0.76059821627942492128	121.09508107940951049386	0.00055988138774409890	0.00037149339914321899	0.00084681814769282937	0.13330042362213134766	-0.14780993759632110596	9.79926967620849609375
1731583938.9122607708	-0.88677906487071267438	-0.76053901335545193163	121.09510456465085326272	0.00056887068785727024	0.00034437485737726092	0.00084902753587812185	0.13281928002834320068	-0.14782589673995971680	9.79955959320068359375
1731583938.9123878479	-0.88675484811983540379	-0.76048501297325377113	121.09512612615725402065	0.00057265319628641009	0.00030548140057362616	0.00086333224317058921	0.13266481459140777588	-0.14772480726242065430	9.80014896392822265625
1731583938.9220287800	-0.88653918559932420873	-0.76030848671188633325	121.09520296123531579724	0.00058486324269324541	0.00034921831684187055	0.00088809448061510921	0.13324961066246032715	-0.14785864949226379395	9.79971122741699218750
1731583938.9220623970	-0.88651080650178237796	-0.76025911795772482815	121.09522239421869471698	0.00059960043290629983	0.00032621622085571289	0.00089697545627132058	0.13341522216796875000	-0.14804644882678985596	9.79956054687500000000
1731583938.9223699570	-0.88648213323103330907	-0.76021089104714612006	121.09524149801387693515	0.00061623076908290386	0.00031158479396253824	0.00090205459855496883	0.13331688940525054932	-0.14825390279293060303	9.79890251159667968750
1731583938.9227409363	-0.88645281083584970272	-0.76016737544079371336	121.09525693965377968198	0.00062216911464929581	0.00027716159820556641	0.00092845642939209938	0.13344156742095947266	-0.14802139997482299805	9.79904842376708984375
1731583938.9318556786	-0.88622560296971641947	-0.75994085366915409274	121.09530695178432324610	0.00064701290102675557	0.00033633099519647658	0.00099149532616138458	0.13384191691875457764	-0.14849002659320831299	9.79899597167968750000
1731583938.9318974018	-0.88619494898971662433	-0.75990297611399792999	121.09531901363817496531	0.00064913189271464944	0.00031899657915346324	0.00098964571952819824	0.13373698294162750244	-0.14819142222404479980	9.79961490631103515625
1731583938.9321591854	-0.88616066527499093297	-0.75986291410491879628	121.09532843722769257511	0.00067616655724123120	0.00033393650664947927	0.00100281811319291592	0.13365657627582550049	-0.14797408878803253174	9.79985904693603515625
1731583938.9321992397	-0.88612439531426934192	-0.75982108694357475276	121.09533944048581588504	0.00069072208134457469	0.00034670287277549505	0.00099275948014110327	0.13375414907932281494	-0.14827689528465270996	9.79973030090332031250
1731583938.9416339397	-0.88589396997241953713	-0.75966080185824880200	121.09537127692919966648	0.00067950773518532515	0.00018521698075346649	0.00101991079282015562	0.13413453102111816406	-0.14842930436134338379	9.79963302612304687500
1731583938.9417188168	-0.88585100848305931009	-0.75961781336993106084	121.09537776338584080804	0.00069291150430217385	0.00018435713718645275	0.00103064626455307007	0.13436587154865264893	-0.14869296550750732422	9.79900741577148437500
1731583938.9417407513	-0.88580463656331631661	-0.75956444803705092106	121.09538941285705959672	0.00072150223422795534	0.00025407984503544867	0.00101991684641689062	0.13431309163570404053	-0.14903190732002258301	9.79892253875732421875
1731583938.9418234825	-0.88575661566101993039	-0.75951389771328814415	121.09540191708913425828	0.00073253654409199953	0.00023208557104226202	0.00101500481832772493	0.13448168337345123291	-0.14899551868438720703	9.79926013946533203125
1731583938.9512646198	-0.88551647047852111161	-0.75941285128666291548	121.09542348315380877466	0.00075534137431532145	0.00013681035488843918	0.00107666058465838432	0.13507899641990661621	-0.14834035933017730713	9.79925727844238281250
1731583938.9513611794	-0.88545882737697900744	-0.75936676894091525991	121.09543662167340016822	0.00080258405068889260	0.00013655422662850469	0.00106190890073776245	0.13511495292186737061	-0.14813978970050811768	9.79922199249267578125
1731583938.9514217377	-0.88539614464672145022	-0.75932436112747070389	121.09545145316343450759	0.00083962781354784966	0.00010561760427663103	0.00107389967888593674	0.13553746044635772705	-0.14791063964366912842	9.79934787750244140625
1731583938.9514925480	-0.88533051232916637474	-0.75928438927865649077	121.09546751831516075981	0.00085858820239081979	0.00008635067933937535	0.00106765306554734707	0.13541191816329956055	-0.14811955392360687256	9.79814338684082031250
1731583938.9610352516	-0.88505470084147430665	-0.75922081666196561400	121.09550961207264663244	0.00093249551719054580	0.00002999409116455354	0.00103202345781028271	0.13596472144126892090	-0.14711816608905792236	9.79872989654541015625
1731583938.9611177444	-0.88499227140825520443	-0.75918706902103405554	121.09552841975545334208	0.00092368578771129251	0.00000379976563635864	0.00100353360176086426	0.13582895696163177490	-0.14706437289714813232	9.79850482940673828125
1731583938.9611303806	-0.88493152417160592105	-0.75915161901535843647	121.09554680973008089495	0.00090842152712866664	0.00001180801154987421	0.00101958564482629299	0.13614329695701599121	-0.14723147451877593994	9.79926872253417968750
1731583938.9612395763	-0.88487340086722265919	-0.75911607857375285047	121.09556429186545756238	0.00088966777548193932	0.00000996702146949247	0.00102838547900319099	0.13612419366836547852	-0.14719185233116149902	9.79963302612304687500
1731583938.9706737995	-0.88456915059173335525	-0.75903968455694936779	121.09556273866104447734	0.00087396794697269797	0.00005793008676846512	0.00111812562681734562	0.13716247677803039551	-0.14658047258853912354	9.79955291748046875000
1731583938.9707493782	-0.88451169056591050222	-0.75901027323326719642	121.09557511960406372964	0.00091718143085017800	0.00002945212327176705	0.00113441806752234697	0.13757231831550598145	-0.14649309217929840088	9.79933452606201171875
1731583938.9708352089	-0.88445840198805358856	-0.75898386820087393456	121.09558930856462666270	0.00089170661522075534	0.00000161802870479733	0.00114712608046829700	0.13794441521167755127	-0.14659421145915985107	9.79878044128417968750
1731583938.9708583355	-0.88440862941973785727	-0.75896123627871747708	121.09559797401715286469	0.00086802308214828372	-0.00002649520320119336	0.00118825363460928202	0.13821436464786529541	-0.14664894342422485352	9.79900074005126953125
1731583938.9793672562	-0.88412441395108265496	-0.75883535404213664499	121.09553941745923566486	0.00082301627844572067	0.00005460314059746452	0.00122050102800130844	0.13818442821502685547	-0.14610750973224639893	9.79921150207519531250
1731583938.9794609547	-0.88407461111598306669	-0.75882092109102172728	121.09554008069903829892	0.00081817811587825418	0.00001998243351408746	0.00126083951909095049	0.13840268552303314209	-0.14623495936393737793	9.79977798461914062500
1731583938.9794850349	-0.88402763488331870256	-0.75880469920961168828	121.09554626938529509061	0.00080186314880847931	0.00003093869599979371	0.00127374078147113323	0.13859461247920989990	-0.14596115052700042725	9.80055809020996093750
1731583938.9890801907	-0.88377850135432256540	-0.75867882145103560099	121.09545022145698567329	0.00074712530476972461	-0.00001181869356514653	0.00132608658168464899	0.13844408094882965088	-0.14517723023891448975	9.80086803436279296875
1731583938.9891397953	-0.88372853954331087589	-0.75865900033867195162	121.09545576840730518597	0.00075495778582990170	0.00001729859468468931	0.00133127125445753336	0.13879953324794769287	-0.14494355022907257080	9.80088329315185546875
1731583938.9893429279	-0.88367899696490515016	-0.75863864797208957480	121.09546095325339365445	0.00075149541953578591	0.00002090629823214840	0.00133757304865866899	0.13915318250656127930	-0.14509959518909454346	9.80079078674316406250
1731583938.9893522263	-0.88362428742423071437	-0.75861300979571666403	121.09546758159370938301	0.00078675878467038274	0.00006007874253555201	0.00133712345268577337	0.13940834999084472656	-0.14533610641956329346	9.80043125152587890625
1731583938.9989187717	-0.88344372526343906138	-0.75851733083528516399	121.09538124378354950750	0.00075767247471958399	0.00007685160380788147	0.00135576236061751842	0.13922533392906188965	-0.14463426172733306885	9.80027580261230468750
1731583938.9990189075	-0.88338551120884323264	-0.75848597387152372207	121.09538538518160066815	0.00076700007775798440	0.00009039786527864635	0.00136774790007621050	0.13911284506320953369	-0.14468103647232055664	9.80058383941650390625
1731583938.9990484715	-0.88332718789853081898	-0.75845322338799447959	121.09538972670350176486	0.00076612294651567936	0.00009920557931764051	0.00137055316008627415	0.13913717865943908691	-0.14439836144447326660	9.80061435699462890625
1731583938.9990651608	-0.88326745071086398831	-0.75841565631812835058	121.09540316658177516729	0.00077797751873731613	0.00012837043323088437	0.00136874779127538204	0.13952255249023437500	-0.14429523050785064697	9.80067539215087890625
1731583939.0087599754	-0.88304669882249409163	-0.75829109506119607431	121.09529935528610167239	0.00082005077274516225	0.00013270146155264229	0.00132733944337815046	0.13953486084938049316	-0.14420615136623382568	9.80136299133300781250
1731583939.0088326931	-0.88298562770295718760	-0.75825664654008018140	121.09531062866881256923	0.00079521542647853494	0.00012432782386895269	0.00132579368073493242	0.13965800404548645020	-0.14429838955402374268	9.80081844329833984375
1731583939.0088517666	-0.88292461351992690410	-0.75822231926547445369	121.09532649890479660826	0.00079266657121479511	0.00012291950406506658	0.00129808683414012194	0.14003129303455352783	-0.14427630603313446045	9.80162906646728515625
1731583939.0089011192	-0.88286597623955287428	-0.75819103167286749922	121.09533699283144869696	0.00077449547825381160	0.00009916112321661785	0.00131177366711199284	0.13982252776622772217	-0.14435684680938720703	9.80151844024658203125
1731583939.0186352730	-0.88261833216298057891	-0.75801110325015719216	121.09529529856598628612	0.00087892514420673251	0.00020057550864294171	0.00126859056763350964	0.14011509716510772705	-0.14454510807991027832	9.80167102813720703125
1731583939.0186936855	-0.88256526232007637134	-0.75798794925750645479	121.09530814304542900572	0.00082658982137218118	0.00015749035810586065	0.00127524894196540117	0.14038605988025665283	-0.14453603327274322510	9.80166435241699218750
1731583939.0188016891	-0.88251797268273868280	-0.75796929551113756407	121.09532000749589997213	0.00078605138696730137	0.00012684045941568911	0.00128568429499864578	0.14077295362949371338	-0.14431236684322357178	9.80147457122802734375
1731583939.0188317299	-0.88247290596258143314	-0.75795093502142640851	121.09531732820374827497	0.00077254162169992924	0.00012873536616098136	0.00130950799211859703	0.14118589460849761963	-0.14439316093921661377	9.80140113830566406250
1731583939.0284669399	-0.88217990203571983177	-0.75775965301527647977	121.09528315962933220362	0.00084189354674890637	0.00017463126278016716	0.00126408331561833620	0.14068038761615753174	-0.14415274560451507568	9.80133342742919921875
1731583939.0285322666	-0.88213845910299082398	-0.75774485463976382071	121.09527600620248222185	0.00081110751489177346	0.00014338640903588384	0.00127105426508933306	0.14103323221206665039	-0.14420309662818908691	9.80195617675781250000
1731583939.0285980701	-0.88209896740464688314	-0.75773106155350489210	121.09526896278032381815	0.00079864962026476860	0.00013833242701366544	0.00127164856530725956	0.14089235663414001465	-0.14398692548274993896	9.80236148834228515625
1731583939.0286066532	-0.88206087582596814922	-0.75772104294362008226	121.09526909966729135704	0.00079630746040493250	0.00012037246779073030	0.00124295463319867849	0.14104306697845458984	-0.14380793273448944092	9.80293846130371093750
1731583939.0382428169	-0.88173230393053436682	-0.75754103107845982557	121.09527048067263876874	0.00085970852524042130	0.00008217767026508227	0.00119013804942369461	0.14042608439922332764	-0.14338344335556030273	9.80213928222656250000
1731583939.0383193493	-0.88169204580822779782	-0.75752611067021657920	121.09527225727629229368	0.00086539989570155740	0.00011015681229764596	0.00117233407218009233	0.14066787064075469971	-0.14357756078243255615	9.80158519744873046875
1731583939.0383369923	-0.88165333570637016702	-0.75750939121351945627	121.09527347861114776606	0.00085654592840000987	0.00012423652515280992	0.00117808731738477945	0.14105962216854095459	-0.14367578923702239990	9.80141735076904296875
1731583939.0384082794	-0.88161766108717676271	-0.75748806049717243294	121.09526360753869766995	0.00084212853107601404	0.00015853768854867667	0.00119599315803498030	0.14116159081459045410	-0.14394377171993255615	9.80159950256347656250
1731583939.0478730202	-0.88130228342296834665	-0.75733516256323885063	121.09531204269887894043	0.00079454178921878338	0.00007956625631777570	0.00117035349830985069	0.14017733931541442871	-0.14302244782447814941	9.80083560943603515625
1731583939.0479857922	-0.88126102372764658632	-0.75730326839304140663	121.09530264576801528165	0.00081490731099620461	0.00012492384121287614	0.00115902733523398638	0.14011915028095245361	-0.14289286732673645020	9.80201244354248046875
1731583939.0480072498	-0.88121975925817042086	-0.75726885168664503922	121.09529522701325277012	0.00081598915858194232	0.00014210285735316575	0.00114527472760528326	0.13961376249790191650	-0.14297427237033843994	9.80160522460937500000
1731583939.0480232239	-0.88117939760327324006	-0.75722921945832477597	121.09528512950595313669	0.00081149756442755461	0.00018169530085287988	0.00115947006270289421	0.13987772166728973389	-0.14280302822589874268	9.80172348022460937500
1731583939.0577776432	-0.88091780121502183398	-0.75708020233745865202	121.09532428199963760562	0.00071261491393670440	0.00021252593433018774	0.00118846353143453598	0.13891212642192840576	-0.14259837567806243896	9.80154418945312500000
1731583939.0578968525	-0.88086763673415957587	-0.75704701475638069841	121.09531629328034796345	0.00074575102189555764	0.00017173586820717901	0.00118481379467993975	0.13894736766815185547	-0.14273077249526977539	9.80126857757568359375
1731583939.0579166412	-0.88081432606286880205	-0.75701017683278459813	121.09530874897848207183	0.00076695834286510944	0.00019691356283146888	0.00118255021516233683	0.13899229466915130615	-0.14275296032428741455	9.80160331726074218750
1731583939.0579681396	-0.88076298742466996305	-0.75697643137767012256	121.09530247148870785168	0.00075652287341654301	0.00017447280697524548	0.00120170274749398232	0.13869334757328033447	-0.14288587868213653564	9.80183029174804687500
1731583939.0675725937	-0.88052177389810859509	-0.75678750737139166560	121.09533362968136316340	0.00075063499389216304	0.00024827398010529578	0.00118866271805018187	0.13758531212806701660	-0.14280234277248382568	9.80059337615966796875
1731583939.0676317215	-0.88046622811858332724	-0.75675695278810550803	121.09533086906861854004	0.00079198932508006692	0.00023613868688698858	0.00117975485045462847	0.13736794888973236084	-0.14271724224090576172	9.80079460144042968750
1731583939.0677134991	-0.88041617301671715179	-0.75672851324475232104	121.09532683067999414561	0.00075277214637026191	0.00022189182345755398	0.00118943629786372185	0.13743424415588378906	-0.14273042976856231689	9.80051898956298828125
1731583939.0774064064	-0.88018624582843607573	-0.75653001690086740805	121.09534785738503614994	0.00073418172542005777	0.00020743292407132685	0.00114148017019033432	0.13643887639045715332	-0.14299994707107543945	9.80037307739257812500
1731583939.0774490833	-0.88013286363722331718	-0.75651135417452042287	121.09535099319356277192	0.00074480730108916759	0.00018000896670855582	0.00114927790127694607	0.13628844916820526123	-0.14293844997882843018	9.80010604858398437500
1731583939.0774822235	-0.88007969250770567982	-0.75649210732166038973	121.09535042313513031331	0.00074252492049708962	0.00018542259931564331	0.00117677461821585894	0.13610032200813293457	-0.14299455285072326660	9.80013179779052734375
1731583939.0775513649	-0.88003524341076189152	-0.75647495035691947329	121.09534866918471607278	0.00068056170130148530	0.00017243954061996192	0.00118610996287316084	0.13575665652751922607	-0.14305442571640014648	9.80068874359130859375
1731583939.0872023106	-0.87976438823129254896	-0.75626876850005420039	121.09535286936039710781	0.00076432741479948163	0.00019304307352285832	0.00119898840785026550	0.13526442646980285645	-0.14236460626125335693	9.79999446868896484375
1731583939.0872337818	-0.87972050475888563525	-0.75624374749100498061	121.09534719841803962481	0.00076732138404622674	0.00023209664504975080	0.00121695280540734529	0.13547345995903015137	-0.14218559861183166504	9.80004596710205078125
1731583939.0872499943	-0.87967448885962762350	-0.75621315632048791144	121.09534378321137637613	0.00078237807611003518	0.00027260184288024902	0.00120268028695136309	0.13544467091560363770	-0.14209592342376708984	9.79944133758544921875
1731583939.0872929096	-0.87962997185188041005	-0.75617707576760762045	121.09533826075698925706	0.00077235436765477061	0.00031171273440122604	0.00121931394096463919	0.13568340241909027100	-0.14196775853633880615	9.79927444458007812500
1731583939.0969395638	-0.87993149274601256682	-0.75639572346750238996	121.09536918690196216630	0.00073770346352830529	0.00014983043365646154	0.00123314489610493183	0.13496440649032592773	-0.14205485582351684570	9.79905605316162109375
1731583939.0972115993	-0.87989353118456536951	-0.75635422771344240633	121.09537020769761284100	0.00074824696639552712	0.00020122528076171875	0.00122323643881827593	0.13500392436981201172	-0.14206720888614654541	9.79946804046630859375
1731583939.0972535610	-0.87985174946995958756	-0.75630680540888761687	121.09537134193800511639	0.00077595171751454473	0.00024136118008755147	0.00122518406715244055	0.13447882235050201416	-0.14186772704124450684	9.79934120178222656250
1731583939.0972733498	-0.87980396296279050894	-0.75625816855286287499	121.09538148039604266160	0.00081783055793493986	0.00024910789215937257	0.00116454099770635366	0.13437348604202270508	-0.14193192124366760254	9.79940032958984375000
1731583939.1058115959	-0.88160665533247128955	-0.75751449922760616396	121.09545641911932989387	0.00076292478479444981	0.00009023316670209169	0.00123192032333463430	0.13413919508457183838	-0.14147871732711791992	9.79949188232421875000
1731583939.1058547497	-0.88158174544618728152	-0.75748345039228015541	121.09545378529031722792	0.00074966257670894265	0.00010890513658523560	0.00123943400103598833	0.13412116467952728271	-0.14124511182308197021	9.79897308349609375000
1731583939.1058821678	-0.88155388589307381864	-0.75745870314570928894	121.09545524614463829494	0.00077276077354326844	0.00006465447950176895	0.00121172785293310881	0.13408291339874267578	-0.14100418984889984131	9.79859161376953125000
1731583939.1062014103	-0.88152484867086877696	-0.75743859874061503223	121.09545935505599345561	0.00078348186798393726	0.00003227316847187467	0.00119463226292282343	0.13389879465103149414	-0.14078567922115325928	9.79849720001220703125
1731583939.1156139374	-0.88329261697339267467	-0.75869043583990825041	121.09552227564165605145	0.00071281410055235028	0.00000477278763355571	0.00117766391485929489	0.13367651402950286865	-0.14061830937862396240	9.79825401306152343750
1731583939.1156659126	-0.88328245640732061528	-0.75869065966892501596	121.09552790156135415600	0.00072281068423762918	-0.00003504009146126918	0.00117736321408301592	0.13340803980827331543	-0.14038719236850738525	9.79871177673339843750
1731583939.1156961918	-0.88326767117614157776	-0.75869365032356395062	121.09553236010680166146	0.00075992167694494128	-0.00005223685730015859	0.00118753232527524233	0.13325300812721252441	-0.14016352593898773193	9.79867362976074218750
1731583939.1157491207	-0.88325319790669998277	-0.75869554766830693548	121.09553931496088807762	0.00076198921306058764	-0.00004186010846751742	0.00117250101175159216	0.13334861397743225098	-0.13976050913333892822	9.79827785491943359375
1731583939.1264238358	-0.88494896703999292864	-0.75991242140022552398	121.09558235566191797261	0.00084048457210883498	-0.00003523904160829261	0.00115936947986483574	0.13299058377742767334	-0.13999575376510620117	9.79853153228759765625
1731583939.1264541149	-0.88495198970032196151	-0.75994164215213211300	121.09558781213479505823	0.00084196036914363503	-0.00008495897782268003	0.00116240244824439287	0.13282944262027740479	-0.13986690342426300049	9.79811096191406250000
1731583939.1264867783	-0.88496048300606200421	-0.75997502061529331741	121.09559441804833568312	0.00081143603892996907	-0.00010803342593135312	0.00115611951332539320	0.13268387317657470703	-0.13947395980358123779	9.79862785339355468750
1731583939.1266071796	-0.88496884096371464246	-0.76001097112960525060	121.09560471439351658773	0.00082036224193871021	-0.00011935375368921086	0.00113226787652820349	0.13230659067630767822	-0.13953377306461334229	9.79883193969726562500
1731583939.1362781525	-0.88655769450974963863	-0.76120081072624112828	121.09560401588214517687	0.00084617210086435080	-0.00020473606127779931	0.00112790730781853199	0.13289323449134826660	-0.13894468545913696289	9.79863071441650390625
1731583939.1363754272	-0.88658750833331811947	-0.76125128171833178481	121.09560283902965238667	0.00083395099500194192	-0.00021776558423880488	0.00113682460505515337	0.13283056020736694336	-0.13900569081306457520	9.79863357543945312500
1731583939.1364364624	-0.88661785428833639333	-0.76129717843615796191	121.09559612542551576553	0.00084220920689404011	-0.00017894187476485968	0.00117704132571816444	0.13296976685523986816	-0.13878758251667022705	9.79821777343750000000
1731583939.1364510059	-0.88665374272376362708	-0.76134180427196462837	121.09558829527878742738	0.00081534445052966475	-0.00016286360914818943	0.00118563836440443993	0.13311874866485595703	-0.13857245445251464844	9.79820251464843750000
1731583939.1459650993	-0.88816181463852250655	-0.76255554252033330709	121.09555227590675485771	0.00083859614096581936	-0.00027770010638050735	0.00121193658560514450	0.13342282176017761230	-0.13834978640079498291	9.79866504669189453125
1731583939.1460034847	-0.88821487449973268724	-0.76260327856739684727	121.09554018903713767941	0.00084401672938838601	-0.00024229289556387812	0.00123292219359427691	0.13319018483161926270	-0.13826756179332733154	9.79879474639892578125
1731583939.1461610794	-0.88827003356335598738	-0.76265087172718903918	121.09552561514090029959	0.00084441428771242499	-0.00023467825667466968	0.00125086971092969179	0.13307492434978485107	-0.13820378482341766357	9.79940509796142578125
1731583939.1461775303	-0.88833064221302038277	-0.76269986456052440982	121.09551061118213510781	0.00082166225183755159	-0.00023748347302898765	0.00125378835946321487	0.13260966539382934570	-0.13812127709388732910	9.79870605468750000000
1731583939.1545405388	-0.88977663885005009448	-0.76394730347747197285	121.09545978348319295037	0.00083239219384267926	-0.00033597694709897041	0.00123809475917369127	0.13354510068893432617	-0.13799066841602325439	9.79953956604003906250
1731583939.1546099186	-0.88985259603518018778	-0.76400760948944734796	121.09543874745480707134	0.00083550071576610208	-0.00034337490797042847	0.00125670444685965776	0.13366089761257171631	-0.13780573010444641113	9.79876613616943359375
1731583939.1546254158	-0.88992688131623731707	-0.76406786055505049315	121.09541730082986532580	0.00086515548173338175	-0.00033538151183165610	0.00125917082186788321	0.13379287719726562500	-0.13771007955074310303	9.79840183258056640625
1731583939.1643159389	-0.89133632128096851321	-0.76525092122556448437	121.09538142099995639001	0.00074738822877407074	-0.00027839606627821922	0.00116699468344449997	0.13457383215427398682	-0.13767656683921813965	9.79840850830078125000
1731583939.1643533707	-0.89142850324294320430	-0.76532323842380156620	121.09537009253301675926	0.00075718562584370375	-0.00027695507742464542	0.00116153084672987461	0.13426272571086883545	-0.13747103512287139893	9.79835605621337890625
1731583939.1643774509	-0.89152165125547433444	-0.76540242829639659750	121.09535757306628056540	0.00076981639722362161	-0.00031515958835370839	0.00116896640975028276	0.13411109149456024170	-0.13724154233932495117	9.79872417449951171875
1731583939.1644840240	-0.89161892760368643973	-0.76548669850809247794	121.09534470660651095386	0.00076074950629845262	-0.00034007761860266328	0.00117059168405830860	0.13387562334537506104	-0.13721649348735809326	9.79885005950927734375
1731583939.1739621162	-0.89299399144013147378	-0.76658215927867900952	121.09532259923844321747	0.00072737393202260137	-0.00026505807181820273	0.00114015070721507072	0.13464224338531494141	-0.13744166493415832520	9.79992771148681640625
1731583939.1741337776	-0.89310544640314148968	-0.76668581217422948626	121.09531217888024912099	0.00073651579441502690	-0.00031591200968250632	0.00114296341780573130	0.13467584550380706787	-0.13724775612354278564	9.79953575134277343750
1731583939.1741662025	-0.89322104498566412545	-0.76680130389430289917	121.09530199082769286179	0.00072930759051814675	-0.00038465112447738647	0.00113973778206855059	0.13453315198421478271	-0.13738796114921569824	9.79915046691894531250
1731583939.1742014885	-0.89334089056289356368	-0.76691949857116548106	121.09529131343123253828	0.00072219461435452104	-0.00038858165498822927	0.00114284385927021503	0.13437414169311523438	-0.13727210462093353271	9.79952049255371093750
1731583939.1848275661	-0.89436979349008305373	-0.76775127879919535800	121.09527867333520134707	0.00070045056054368615	-0.00037313395296223462	0.00110732601024210453	0.13442987203598022461	-0.13713413476943969727	9.79880714416503906250
1731583939.1849069595	-0.89450062389299411780	-0.76786735798827754351	121.09527265039486110254	0.00072366005042567849	-0.00031500309705734253	0.00110372912604361773	0.13390728831291198730	-0.13694342970848083496	9.79904747009277343750
1731583939.1849284172	-0.89463804364715904249	-0.76797992006766646611	121.09526550343161943601	0.00070234143640846014	-0.00027479848358780146	0.00111205561552196741	0.13418859243392944336	-0.13662017881870269775	9.79952907562255859375
1731583939.1849498749	-0.89477032347347684738	-0.76809192851619689790	121.09525720592597508585	0.00076388986781239510	-0.00025521279894746840	0.00112020247615873814	0.13410636782646179199	-0.13669553399085998535	9.79888534545898437500
1731583939.1944856644	-0.89603285331433868421	-0.76916108058996923713	121.09525341436494727532	0.00076594925485551357	-0.00036534402170218527	0.00109530915506184101	0.13442191481590270996	-0.13651876151561737061	9.80018329620361328125
1731583939.1945128441	-0.89617971839222487773	-0.76927096617772283693	121.09524910537044206649	0.00077577686170116067	-0.00031375139951705933	0.00105781119782477617	0.13432951271533966064	-0.13683412969112396240	9.80003738403320312500
1731583939.1945481300	-0.89633433453862410012	-0.76938472535757784776	121.09524466115669838473	0.00074905436486005783	-0.00032589142210781574	0.00105834379792213440	0.13412195444107055664	-0.13681985437870025635	9.80014324188232421875
1731583939.1946487427	-0.89649490501306239310	-0.76949995950026495173	121.09523857523538481473	0.00073612504638731480	-0.00032087674480862916	0.00106950814370065928	0.13381020724773406982	-0.13668841123580932617	9.80043983459472656250
1731583939.2042438984	-0.89769968711058578670	-0.77056035713338222326	121.09528332216979151781	0.00075467745773494244	-0.00033937764237634838	0.00099551561288535595	0.13465169072151184082	-0.13731923699378967285	9.79983520507812500000
1731583939.2044546604	-0.89787108289565153996	-0.77068036618430324491	121.09527759521000689347	0.00073800986865535378	-0.00030729919672012329	0.00101868819911032915	0.13444618880748748779	-0.13735526800155639648	9.79963970184326171875
1731583939.2044887543	-0.89804963936830384252	-0.77080139388526280886	121.09527012986711724807	0.00071862735785543919	-0.00029818879556842148	0.00103012181352823973	0.13452681899070739746	-0.13748358190059661865	9.79970932006835937500
1731583939.2045571804	-0.89823679621517971139	-0.77092531348668680291	121.09525603229809576078	0.00069079053355380893	-0.00030228070681914687	0.00107530131936073303	0.13422431051731109619	-0.13761790096759796143	9.79901218414306640625
1731583939.2129557133	-0.89939982336521928641	-0.77191482470760142132	121.09534545420348194966	0.00067160720936954021	-0.00022720583365298808	0.00097362126689404249	0.13455381989479064941	-0.13833868503570556641	9.79998302459716796875
1731583939.2130329609	-0.89960721377523467090	-0.77204949787702059627	121.09534577128977161919	0.00064671790460124612	-0.00022949279809836298	0.00093518948415294290	0.13435132801532745361	-0.13857746124267578125	9.80017566680908203125
1731583939.2130906582	-0.89982057183098351771	-0.77218810493417366914	121.09534650851168180452	0.00063962861895561218	-0.00023766599770169705	0.00093115703202784061	0.13395051658153533936	-0.13851189613342285156	9.80032253265380859375
1731583939.2131087780	-0.90003943874895286914	-0.77233464573889043514	121.09534777002437522242	0.00063686503563076258	-0.00027307140408083797	0.00092600838979706168	0.13372661173343658447	-0.13827919960021972656	9.80071735382080078125
1731583939.2228643894	-0.90113520480717168581	-0.77323769167921219125	121.09552176254322830573	0.00061978504527360201	-0.00019948376575484872	0.00089559669140726328	0.13393658399581909180	-0.13893975317478179932	9.80054283142089843750
1731583939.2228949070	-0.90136069221316139632	-0.77340070362215251887	121.09553735049763645293	0.00065331911901012063	-0.00023122133279684931	0.00088354951003566384	0.13398016989231109619	-0.13897401094436645508	9.80007076263427734375
1731583939.2229285240	-0.90159260527320161938	-0.77357501251743332471	121.09555252137010938895	0.00064576970180496573	-0.00028693015337921679	0.00088628049707040191	0.13398955762386322021	-0.13921710848808288574	9.79984664916992187500
1731583939.2229421139	-0.90182969047925687356	-0.77375263500266999728	121.09556796610792162028	0.00064811692573130131	-0.00028556250617839396	0.00088514422532171011	0.13408528268337249756	-0.13950312137603759766	9.79995632171630859375
1731583939.2335553169	-0.90288616758509010474	-0.77457930379981965174	121.09573141783266692073	0.00059611286269500852	-0.00023999721452128142	0.00090765045024454594	0.13483434915542602539	-0.14014777541160583496	9.79946422576904296875
1731583939.2335922718	-0.90312804200423857370	-0.77476739724720600222	121.09575645009459776702	0.00061646109679713845	-0.00024360418319702148	0.00089040404418483377	0.13507026433944702148	-0.14026333391666412354	9.80000782012939453125
1731583939.2336733341	-0.90337351324851788981	-0.77495764216635421029	121.09578319707986793219	0.00063041696557775140	-0.00023184852034319192	0.00088078662520274520	0.13486672937870025635	-0.14039127528667449951	9.79973220825195312500
1731583939.2336952686	-0.90362341344467433935	-0.77515128363557084246	121.09581293272617585899	0.00063948793103918433	-0.00022795735276304185	0.00086215382907539606	0.13534554839134216309	-0.14044046401977539062	9.79997158050537109375
1731583939.2422130108	-0.90463882018967090026	-0.77594530428620966944	121.09593327479444724304	0.00061998423188924789	-0.00026808812981471419	0.00089589180424809456	0.13556468486785888672	-0.14083459973335266113	9.79941177368164062500
1731583939.2422394753	-0.90489071619382444034	-0.77614166822699215409	121.09596868555365745124	0.00065307324985042214	-0.00025819987058639526	0.00088381773093715310	0.13598614931106567383	-0.14116820693016052246	9.80007171630859375000
1731583939.2422871590	-0.90514839184625495161	-0.77633906875808811332	121.09600425901254538985	0.00065373955294489861	-0.00023783156939316541	0.00088644603965803981	0.13571313023567199707	-0.14142917096614837646	9.79959201812744140625
1731583939.2518734932	-0.90612113198516996970	-0.77714859277261927328	121.09607352499165244808	0.00058863975573331118	-0.00036816095234826207	0.00089541374472901225	0.13601900637149810791	-0.14163158833980560303	9.79962158203125000000
1731583939.2519507408	-0.90638592166965081809	-0.77735408530043870190	121.09610952529141059131	0.00059136957861483097	-0.00035312064574100077	0.00090851349523290992	0.13606885075569152832	-0.14177009463310241699	9.79964447021484375000
1731583939.2519698143	-0.90665552462982013093	-0.77756550602699281427	121.09614896743511280874	0.00060152268270030618	-0.00037094205617904663	0.00089604413369670510	0.13593906164169311523	-0.14169971644878387451	9.79925251007080078125
1731583939.2522323132	-0.90693073720130423787	-0.77778138228237481133	121.09618443209416227546	0.00060574727831408381	-0.00037391379009932280	0.00092801876598969102	0.13608129322528839111	-0.14149658381938934326	9.79905223846435546875
1731583939.2615892887	-0.90770530933418436259	-0.77841701243584404679	121.09622280373554303878	0.00060571014182642102	-0.00032968452433124185	0.00089375249808654189	0.13602223992347717285	-0.14167508482933044434	9.79960536956787109375
1731583939.2616133690	-0.90799547224146570645	-0.77865046879131316615	121.09625373579200413587	0.00059583788970485330	-0.00038003924419172108	0.00091893231729045510	0.13601247966289520264	-0.14161117374897003174	9.79915904998779296875
1731583939.2616975307	-0.90829413798213942677	-0.77889421103773470723	121.09627369706458921428	0.00058052822714671493	-0.00042052884236909449	0.00090793229173868895	0.13588689267635345459	-0.14180184900760650635	9.79948711395263671875
1731583939.2617740631	-0.90860311595176490584	-0.77914901160469518526	121.09629516932005799390	0.00055573735153302550	-0.00046456651762127876	0.00089824356837198138	0.13565760850906372070	-0.14165043830871582031	9.79963111877441406250
1731583939.2710928917	-0.90948010315992067198	-0.77988416036233465523	121.09631879821654365514	0.00050506828119978309	-0.00044450460700318217	0.00085243495414033532	0.13613341748714447021	-0.14198322594165802002	9.80018806457519531250
1731583939.2713088989	-0.90980602125410170444	-0.78014518422288281485	121.09633612074588882024	0.00048466774751432240	-0.00045444819261319935	0.00087812542915344238	0.13627083599567413330	-0.14207999408245086670	9.79988765716552734375
1731583939.2713997364	-0.91014464958641561054	-0.78041021138178379157	121.09635524941501216745	0.00045837630750611424	-0.00045493699144572020	0.00088480539852753282	0.13645246624946594238	-0.14228841662406921387	9.79924201965332031250
1731583939.2714288235	-0.91049488589934235439	-0.78068543762581432688	121.09637310730596482244	0.00042923711589537561	-0.00049059791490435600	0.00089436618145555258	0.13670508563518524170	-0.14225664734840393066	9.79947090148925781250
1731583939.2810273170	-0.91131105761930930598	-0.78132307699798930756	121.09642306924695276393	0.00044408414396457374	-0.00040486161014996469	0.00089742615818977356	0.13627688586711883545	-0.14272595942020416260	9.79931735992431640625
1731583939.2810578346	-0.91167172028500409464	-0.78160474689488090849	121.09643749948133972794	0.00041539969970472157	-0.00040622058440931141	0.00090719020226970315	0.13645847141742706299	-0.14290209114551544189	9.79997634887695312500
1731583939.2811813354	-0.91204491944218446520	-0.78189140641911281104	121.09645091556137685984	0.00038208687328733504	-0.00040992494905367494	0.00091106304898858070	0.13643907010555267334	-0.14271028339862823486	9.80047416687011718750
1731583939.2812094688	-0.91242928577645721067	-0.78217948945894921753	121.09645956019079449106	0.00036048647598363459	-0.00038116564974188805	0.00094543310115113854	0.13669216632843017578	-0.14288234710693359375	9.80050182342529296875
1731583939.2918510437	-0.91321683350528970458	-0.78278232888540721923	121.09647499429945582960	0.00031935700098983943	-0.00044811188126914203	0.00098718726076185703	0.13704888522624969482	-0.14360906183719635010	9.80060005187988281250
1731583939.2918956280	-0.91360512933584769879	-0.78307337556048528526	121.09648353659110853187	0.00031836333801038563	-0.00044628235627897084	0.00098368525505065918	0.13747890293598175049	-0.14386746287345886230	9.80067825317382812500
1731583939.2919945717	-0.91399939627583715041	-0.78336532067329378570	121.09647717301567126924	0.00034890545066446066	-0.00040969165274873376	0.00101783964782953262	0.13750998675823211670	-0.14419823884963989258	9.80057334899902343750
1731583939.2920191288	-0.91440144804977896431	-0.78366252127479985035	121.09646912938598006804	0.00035324878990650177	-0.00040653563337400556	0.00102852983400225639	0.13763937354087829590	-0.14437584578990936279	9.80090332031250000000
1731583939.3017551899	-0.91515519185738203323	-0.78422773787629362907	121.09647042924774495987	0.00029868716956116259	-0.00033765146508812904	0.00099367881193757057	0.13787733018398284912	-0.14410905539989471436	9.80109405517578125000
1731583939.3018381596	-0.91555515978303492197	-0.78452251933690431152	121.09646639709910687088	0.00033419582177884877	-0.00034579634666442871	0.00097282230854034424	0.13813114166259765625	-0.14413410425186157227	9.80154228210449218750
1731583939.3018579483	-0.91595919641088463514	-0.78482398762149063742	121.09646541762839433432	0.00037067770608700812	-0.00035859117633663118	0.00097630452364683151	0.13825242221355438232	-0.14450137317180633545	9.80109310150146484375
1731583939.3018679619	-0.91636841296751048169	-0.78513801085555179338	121.09646637863136220403	0.00039450827171094716	-0.00040412557427771389	0.00096150505123659968	0.13862414658069610596	-0.14435218274593353271	9.80108547210693359375
1731583939.3114490509	-0.91705712282957674297	-0.78564409055547190786	121.09645511174153398315	0.00038424343802034855	-0.00032317076693288982	0.00097359908977523446	0.13851433992385864258	-0.14451180398464202881	9.80121231079101562500
1731583939.3114833832	-0.91746775500924127034	-0.78596937550959722341	121.09645594577915517220	0.00038030746509321034	-0.00040050595998764038	0.00098150968551635742	0.13875283300876617432	-0.14462506771087646484	9.80134010314941406250
1731583939.3115756512	-0.91788659918969306428	-0.78630258777897055200	121.09645855775301015456	0.00038333615520969033	-0.00041574993520043790	0.00097339955391362309	0.13883686065673828125	-0.14460052549839019775	9.80159854888916015625
1731583939.3115937710	-0.91831528614627777607	-0.78664196509806216806	121.09646163992550782496	0.00037699940730817616	-0.00041291423258371651	0.00096979190129786730	0.13899147510528564453	-0.14461073279380798340	9.80227184295654296875
1731583939.3213033676	-0.91892155725442403735	-0.78708396049977358278	121.09644760033620514150	0.00044324318878352642	-0.00038705396582372487	0.00100776110775768757	0.13919313251972198486	-0.14464469254016876221	9.80195236206054687500
1731583939.3213505745	-0.91935434199407806144	-0.78743179178955524655	121.09644860574871927383	0.00044778737355954945	-0.00042331963777542114	0.00102171301841735840	0.13942953944206237793	-0.14453163743019104004	9.80132770538330078125
1731583939.3213672638	-0.91979283807422917985	-0.78778899344542352434	121.09645523936831068568	0.00048249663086608052	-0.00044622959103435278	0.00103385467082262039	0.14018307626247406006	-0.14472094178199768066	9.80180644989013671875
1731583939.3214042187	-0.92023802636600482430	-0.78815213557672569866	121.09646661351382590510	0.00050156854558736086	-0.00043826139881275594	0.00100191310048103333	0.14014354348182678223	-0.14493735134601593018	9.80116653442382812500
1731583939.3310160637	-0.92075117149389040794	-0.78851997795583195217	121.09643940216909641094	0.00052225624676793814	-0.00037618057103827596	0.00101655430626124144	0.14030611515045166016	-0.14415858685970306396	9.80214691162109375000
1731583939.3310651779	-0.92121396756349027690	-0.78888773503492992667	121.09645185281880230832	0.00044996294309385121	-0.00041177123785018921	0.00098554044961929321	0.14019434154033660889	-0.14442975819110870361	9.80249881744384765625
1731583939.3313822746	-0.92168668025189615101	-0.78926488647776837926	121.09645852294659107429	0.00045328884152695537	-0.00042285432573407888	0.00099205609876662493	0.14035205543041229248	-0.14438758790493011475	9.80319118499755859375
1731583939.3314042091	-0.92217290917928396166	-0.78964895522957145868	121.09646696302388590993	0.00042957160621881485	-0.00041895071626640856	0.00098030641674995422	0.14053280651569366455	-0.14437077939510345459	9.80343246459960937500
1731583939.3397800922	-0.92258437335687493164	-0.78999825841611781563	121.09645204016266006875	0.00049890123773366213	-0.00048544592573307455	0.00100921432022005320	0.13974012434482574463	-0.14435602724552154541	9.80274963378906250000
1731583939.3398125172	-0.92307571588536363461	-0.79036945116507606457	121.09646015260983631379	0.00047799202729947865	-0.00040996074676513672	0.00101174414157867432	0.14015661180019378662	-0.14430294930934906006	9.80288028717041015625
1731583939.3398644924	-0.92357455109899444512	-0.79074114846205145746	121.09647049118842687676	0.00049845140893012285	-0.00036248203832656145	0.00099793379195034504	0.14033707976341247559	-0.14450016617774963379	9.80258274078369140625
1731583939.3495500088	-0.92344722281503677230	-0.79076695474078984027	121.09641698470710480251	0.00047756751882843673	-0.00045632227556779981	0.00103215628769248724	0.14001367986202239990	-0.14401450753211975098	9.80188179016113281250
1731583939.3495812416	-0.92342118844463438876	-0.79079020278915979070	121.09640326292912959616	0.00046793377259746194	-0.00041705372859723866	0.00100512802600860596	0.13992789387702941895	-0.14432702958583831787	9.80220699310302734375
1731583939.3496365547	-0.92339181246949830761	-0.79081019616303660502	121.09639358252849206110	0.00048455872456543148	-0.00039600214222446084	0.00097484450088813901	0.13981385529041290283	-0.14417175948619842529	9.80214977264404296875
1731583939.3497827053	-0.92335626094825595800	-0.79082567536570536060	121.09638780809660829618	0.00052989600226283073	-0.00036323865060694516	0.00098254915792495012	0.14018620550632476807	-0.14417417347431182861	9.80230903625488281250
1731583939.3593811989	-0.92322604812110253825	-0.79088668828702624047	121.09629050237396086231	0.00044509477447718382	-0.00037632073508575559	0.00102812109980732203	0.13933305442333221436	-0.14399665594100952148	9.80213260650634765625
1731583939.3594155312	-0.92319144100581584933	-0.79090285489601919178	121.09628129546109676085	0.00045332315494306386	-0.00039543214370496571	0.00102888792753219604	0.13989134132862091064	-0.14389967918395996094	9.80214023590087890625
1731583939.3595087528	-0.92315693710025081842	-0.79091787512901168267	121.09627410018725868213	0.00045031614718027413	-0.00038670020876452327	0.00101368536707013845	0.13962142169475555420	-0.14420706033706665039	9.80144023895263671875
1731583939.3596532345	-0.92311848088447279181	-0.79093020219975862517	121.09627029078279747409	0.00047842614003457129	-0.00036836281651630998	0.00101704231929033995	0.13949757814407348633	-0.14432969689369201660	9.80191421508789062500
1731583939.3691649437	-0.92301214302355094610	-0.79098878522352278342	121.09614931735069376373	0.00044562591938301921	-0.00032510352320969105	0.00104156171437352896	0.13881033658981323242	-0.14368222653865814209	9.80175399780273437500
1731583939.3692140579	-0.92297285374447335382	-0.79100454456326474428	121.09614317053842569294	0.00043373560765758157	-0.00034154209424741566	0.00103843957185745239	0.13874298334121704102	-0.14356018602848052979	9.80178260803222656250
1731583939.3692989349	-0.92293592313022243534	-0.79102062414756169062	121.09613739618259842246	0.00041428997064940631	-0.00034275685902684927	0.00103495339863002300	0.13925525546073913574	-0.14363044500350952148	9.80164337158203125000
1731583939.3694834709	-0.92290007968787812764	-0.79103926758418807719	121.09613598694272695866	0.00041435117600485682	-0.00036345151602290571	0.00104190292768180370	0.13921013474464416504	-0.14386416971683502197	9.80101203918457031250
1731583939.3789710999	-0.92281093126476609889	-0.79105188303085360868	121.09601071173568698214	0.00040016998536884785	-0.00030780490487813950	0.00097927928436547518	0.13893859088420867920	-0.14340075850486755371	9.80083179473876953125
1731583939.3790001869	-0.92278434022093946965	-0.79107491453996181541	121.09601122288421493067	0.00038314613630063832	-0.00030554088880307972	0.00096431380370631814	0.13857857882976531982	-0.14377763867378234863	9.80052280426025390625
1731583939.3790726662	-0.92276579770081412768	-0.79109599335158187206	121.09600999522331221669	0.00032546999864280224	-0.00028975988971069455	0.00097613147227093577	0.13858255743980407715	-0.14361140131950378418	9.80145645141601562500
1731583939.3791079521	-0.92274817689366439577	-0.79111683271351418423	121.09601786959467517590	0.00033223509672097862	-0.00027762539684772491	0.00097503012511879206	0.13812543451786041260	-0.14369754493236541748	9.80171394348144531250
1731583939.3888337612	-0.92263082874645307996	-0.79110566244890057064	121.09592630613985875243	0.00039322100928984582	-0.00027159950695931911	0.00095765042351558805	0.13795548677444458008	-0.14359045028686523438	9.80105495452880859375
1731583939.3888640404	-0.92261601146791605288	-0.79111576347115553087	121.09593445473052497618	0.00035757574369199574	-0.00024900588323362172	0.00096665328601375222	0.13805338740348815918	-0.14351670444011688232	9.80092906951904296875
1731583939.3889446259	-0.92260392093092757904	-0.79111818236170305951	121.09594692694423656576	0.00033788761356845498	-0.00019380541925784200	0.00093804317293688655	0.13807639479637145996	-0.14385816454887390137	9.80057048797607421875
1731583939.3889727592	-0.92259439720524294426	-0.79111744002866257741	121.09595665100823680405	0.00032190312049351633	-0.00016904456424526870	0.00093171792104840279	0.13790893554687500000	-0.14399191737174987793	9.80035686492919921875
1731583939.3985438347	-0.92248282534752035211	-0.79113580543244510501	121.09585605186526890975	0.00030404274002648890	-0.00022748616174794734	0.00091780093498528004	0.13769662380218505859	-0.14379942417144775391	9.79992961883544921875
1731583939.3985724449	-0.92247434031709774072	-0.79112040484902979021	121.09586421487443885781	0.00027982893516309559	-0.00016092511941678822	0.00093608355382457376	0.13751645386219024658	-0.14403502643108367920	9.79993438720703125000
1731583939.3986861706	-0.92246613929075826910	-0.79110201718801820281	121.09587492203115743905	0.00027746264822781086	-0.00014141053543426096	0.00091884477296844125	0.13730351626873016357	-0.14394465088844299316	9.80033874511718750000
1731583939.3987071514	-0.92245592987252411632	-0.79107971151204692362	121.09589092770880824901	0.00029415352037176490	-0.00011004813859472051	0.00091468042228370905	0.13733723759651184082	-0.14377266168594360352	9.80021858215332031250
1731583939.4084143639	-0.92236221552260166945	-0.79113505091752389653	121.09582095854403860358	0.00025320175336673856	-0.00015475079999305308	0.00093819777248427272	0.13691301643848419189	-0.14415405690670013428	9.80050754547119140625
1731583939.4084427357	-0.92235149192718735023	-0.79111381700386496085	121.09582837799194976469	0.00027108940412290394	-0.00015015157987363636	0.00097528105834499002	0.13690035045146942139	-0.14415231347084045410	9.80018520355224609375
1731583939.4084680080	-0.92233556141554406960	-0.79109701033598955888	121.09583544109995045801	0.00030693385633639991	-0.00018342729890719056	0.00097767426632344723	0.13656830787658691406	-0.14422234892845153809	9.79995918273925781250
1731583939.4084775448	-0.92231677218394114703	-0.79108270003562519701	121.09584768176421221142	0.00033383927075192332	-0.00019910538685508072	0.00097879348322749138	0.13628694415092468262	-0.14450789988040924072	9.80023193359375000000
1731583939.4181780815	-0.92222008983767422841	-0.79111541040000665781	121.09581555680011888398	0.00034352342481724918	-0.00014223971811588854	0.00097980303689837456	0.13638463616371154785	-0.14441931247711181641	9.79936695098876953125
1731583939.4182226658	-0.92219931100033858407	-0.79111118572513738911	121.09582370471139256551	0.00036003443528898060	-0.00019276145030744374	0.00098561495542526245	0.13600589334964752197	-0.14405000209808349609	9.79931831359863281250
1731583939.4182429314	-0.92217841262807676017	-0.79111192937564012162	121.09583266101594745123	0.00035972759360447526	-0.00022771686781197786	0.00097999977879226208	0.13590736687183380127	-0.14433328807353973389	9.79897499084472656250
1731583939.4182529449	-0.92215758777814571534	-0.79110907499332949744	121.09584091280493112208	0.00036570188240148127	-0.00020614542881958187	0.00097788870334625244	0.13587012887001037598	-0.14426869153976440430	9.79824066162109375000
1731583939.4268264771	-0.92205901886924246380	-0.79112319659188068410	121.09581712412767728893	0.00033289342536590993	-0.00018892019579652697	0.00091743946541100740	0.13554234802722930908	-0.14358247816562652588	9.79918289184570312500
1731583939.4268617630	-0.92204156000325132592	-0.79112418622947211500	121.09582400279930425313	0.00031966718961484730	-0.00019405785133130848	0.00090760743478313088	0.13564211130142211914	-0.14404165744781494141	9.79947566986083984375
1731583939.4269254208	-0.92202121114414914427	-0.79112535158806607249	121.09583159013641306956	0.00033878319663926959	-0.00019485152733977884	0.00090230297064408660	0.13512389361858367920	-0.14390195906162261963	9.79953479766845703125
1731583939.4365820885	-0.92190099272686076848	-0.79115229635818429266	121.09583439645274438590	0.00040889083174988627	-0.00024711826699785888	0.00089455180568620563	0.13538789749145507812	-0.14382892847061157227	9.79964065551757812500
1731583939.4366524220	-0.92188588565232620908	-0.79114704744967268013	121.09584092944720623564	0.00038226644392125309	-0.00021093260147608817	0.00090858730254694819	0.13503323495388031006	-0.14394102990627288818	9.79898262023925781250
1731583939.4366743565	-0.92187389738153147078	-0.79113548607824202286	121.09584697443682443918	0.00036050382186658680	-0.00016761574079282582	0.00091227149823680520	0.13544237613677978516	-0.14365252852439880371	9.79953289031982421875
1731583939.4371554852	-0.92185830729950535289	-0.79112108480452303372	121.09585616442467426168	0.00038554123602807522	-0.00014857514179311693	0.00089038204168900847	0.13520704209804534912	-0.14412863552570343018	9.79861259460449218750
1731583939.4464409351	-0.92174732953176929939	-0.79116642351950017265	121.09583996149564200095	0.00039379642112180591	-0.00022823861218057573	0.00091484282165765762	0.13531881570816040039	-0.14373300969600677490	9.79868793487548828125
1731583939.4464688301	-0.92173608937141771058	-0.79114647726524833793	121.09584018371600677710	0.00037147852708585560	-0.00022753332450520247	0.00090933596948161721	0.13511863350868225098	-0.14380578696727752686	9.79901981353759765625
1731583939.4465394020	-0.92172262356741885281	-0.79112396489526981558	121.09583371499752502132	0.00038804733776487410	-0.00021329736046027392	0.00095497636357322335	0.13475343585014343262	-0.14381551742553710938	9.79917144775390625000
1731583939.4466114044	-0.92170770125173162590	-0.79109809952182552628	121.09582675788328742783	0.00039849206223152578	-0.00019309931667521596	0.00095691310707479715	0.13461932539939880371	-0.14357110857963562012	9.79944038391113281250
1731583939.4571099281	-0.92159754746468569575	-0.79122556169652713542	121.09579576694392244463	0.00032125285360962152	-0.00029462255770340562	0.00096422323258593678	0.13479259610176086426	-0.14335970580577850342	9.79952812194824218750
1731583939.4571564198	-0.92158275853591076210	-0.79120706368568738398	121.09578538303162531520	0.00033274295856244862	-0.00032868239213712513	0.00095807766774669290	0.13491535186767578125	-0.14316707849502563477	9.79916191101074218750
1731583939.4575102329	-0.92156775236436427878	-0.79118910759953475775	121.09577250322814734318	0.00033398173400200903	-0.00033645771327428520	0.00097327918047085404	0.13474658131599426270	-0.14325186610221862793	9.79832553863525390625
1731583939.4575450420	-0.92155558764311285014	-0.79117244071444225995	121.09575511616014864558	0.00031401921296492219	-0.00034971357672475278	0.00100201950408518314	0.13477252423763275146	-0.14314331114292144775	9.79853916168212890625
1731583939.4658913612	-0.92148387805058895594	-0.79132202864042433532	121.09567981356605059773	0.00024436431704089046	-0.00036034994991496205	0.00107548770029097795	0.13558898866176605225	-0.14264024794101715088	9.79888343811035156250
1731583939.4659159184	-0.92147529261507066245	-0.79131446800374305450	121.09564014793915021073	0.00023570659686811268	-0.00038231167127378285	0.00108043861109763384	0.13556464016437530518	-0.14249120652675628662	9.79931068420410156250
1731583939.4659845829	-0.92146840461808765532	-0.79131349416546792330	121.09560155577946716221	0.00022306590108200908	-0.00043081669718958437	0.00106696086004376411	0.13526880741119384766	-0.14224363863468170166	9.79930782318115234375
1731583939.4660575390	-0.92146181131362603356	-0.79131436854834513728	121.09555989195928304980	0.00022071968123782426	-0.00044629743206314743	0.00108307879418134689	0.13544121384620666504	-0.14215815067291259766	9.79914951324462890625
1731583939.4757227898	-0.92143206839443669853	-0.79143457389728699702	121.09544928997570423235	0.00010033205762738362	-0.00038884658715687692	0.00112685246858745813	0.13511070609092712402	-0.14252150058746337891	9.79904460906982421875
1731583939.4757578373	-0.92142136240265137825	-0.79144264613227000016	121.09540799306876124319	0.00010979178478009999	-0.00041358175803907216	0.00112264615017920732	0.13501894474029541016	-0.14250098168849945068	9.79883003234863281250
1731583939.4758365154	-0.92141217195413271934	-0.79145418788363486318	121.09536821357323788106	0.00009681242227088660	-0.00043838017154484987	0.00110691552981734276	0.13484126329421997070	-0.14227274060249328613	9.79906272888183593750
1731583939.4758532047	-0.92139760877347931523	-0.79147320442185653544	121.09532890343751887485	0.00013208058953750879	-0.00049102370394393802	0.00109778228215873241	0.13455918431282043457	-0.14220021665096282959	9.79940795898437500000
1731583939.4855179787	-0.92140258434479704874	-0.79156587843601755594	121.09522947696302708209	0.00011326360981911421	-0.00044145801803097129	0.00112587865442037582	0.13516533374786376953	-0.14175872504711151123	9.79886245727539062500
1731583939.4857656956	-0.92138879957889496808	-0.79157793546681998187	121.09519661719747318784	0.00009876492549665272	-0.00041585421422496438	0.00110556941945105791	0.13521403074264526367	-0.14146102964878082275	9.79931735992431640625
1731583939.4858884811	-0.92137063217179959729	-0.79159210796939827315	121.09516739143521135702	0.00012621587666217238	-0.00043044041376560926	0.00107608968392014503	0.13485938310623168945	-0.14133904874324798584	9.79856777191162109375
1731583939.4859211445	-0.92135083952704388555	-0.79160291427656226393	121.09513676373313728618	0.00013455143198370934	-0.00040719707612879574	0.00108254665974527597	0.13519601523876190186	-0.14143453538417816162	9.79889297485351562500
1731583939.4952855110	-0.92137886496380749790	-0.79174056959244576426	121.09502376816851665353	0.00012472717207856476	-0.00054065400036051869	0.00107936048880219460	0.13515198230743408203	-0.14139063656330108643	9.79940605163574218750
1731583939.4953174591	-0.92136111258671515856	-0.79174392691705119951	121.09500157384593421739	0.00012002888252027333	-0.00049917405704036355	0.00107470911461859941	0.13504967093467712402	-0.14128740131855010986	9.79963397979736328125
1731583939.4954328537	-0.92134121469391616621	-0.79174327342968875421	121.09498003132114263281	0.00013183015107642859	-0.00047342802281491458	0.00106799183413386345	0.13477279245853424072	-0.14108651876449584961	9.80006122589111328125
1731583939.4954493046	-0.92131738278354047278	-0.79173852751757967106	121.09495886781030549173	0.00015593004354741424	-0.00044747584615834057	0.00106306863017380238	0.13465133309364318848	-0.14104524254798889160	9.80028247833251953125
1731583939.5052576065	-0.92133187907191238519	-0.79194478616191510412	121.09480846830592781771	0.00018560800526756793	-0.00054962420836091042	0.00109597307164222002	0.13528983294963836670	-0.14103955030441284180	9.80019855499267578125
1731583939.5052971840	-0.92130515090860642946	-0.79194193868102658040	121.09479533165728071253	0.00019249322940595448	-0.00055982923367992043	0.00111402582842856646	0.13540783524513244629	-0.14091274142265319824	9.79978656768798828125
1731583939.5053470135	-0.92128087366586108864	-0.79194152991594801705	121.09477962750793267332	0.00017199556168634444	-0.00058097223518416286	0.00113068206701427698	0.13550825417041778564	-0.14115443825721740723	9.79904365539550781250
1731583939.5149233341	-0.92128030671535698914	-0.79213343124390400707	121.09463508490483718560	0.00017520553956273943	-0.00052459398284554482	0.00110817165113985538	0.13600587844848632812	-0.14053428173065185547	9.79903125762939453125
1731583939.5149602890	-0.92126290056727822009	-0.79214321391779984882	121.09462019000488908205	0.00016460621554870158	-0.00054172368254512548	0.00112957449164241552	0.13585922122001647949	-0.14024126529693603516	9.79939556121826171875
1731583939.5149738789	-0.92124619915726402297	-0.79214822408525142894	121.09460330712562381450	0.00015731158782728016	-0.00051047658780589700	0.00114301603753119707	0.13551579415798187256	-0.14028276503086090088	9.79941654205322265625
1731583939.5150744915	-0.92123187882783519331	-0.79215319961324381914	121.09458487594514508601	0.00013826473150402308	-0.00051263009663671255	0.00115265755448490381	0.13586226105690002441	-0.13996583223342895508	9.79998874664306640625
1731583939.5247156620	-0.92122103484592832157	-0.79230436184382102560	121.09449347459383261594	0.00016970526485238224	-0.00046192875015549362	0.00115568737965077162	0.13588652014732360840	-0.13986052572727203369	9.80012989044189453125
1731583939.5247526169	-0.92120713294365175194	-0.79232396720762154896	121.09446699263435220928	0.00014810428547207266	-0.00051982188597321510	0.00116600119508802891	0.13633976876735687256	-0.13974900543689727783	9.80014514923095703125
1731583939.5247831345	-0.92119668291625000922	-0.79234670697885045687	121.09443736432706373307	0.00012203308142488822	-0.00054229056695476174	0.00118518632370978594	0.13616029918193817139	-0.13978914916515350342	9.79958438873291015625
1731583939.5250875950	-0.92118615701577477584	-0.79237531598770405417	121.09441037299376375813	0.00012024035095237195	-0.00058297411305829883	0.00116352492477744818	0.13625726103782653809	-0.13954891264438629150	9.79989528656005859375
1731583939.5345280170	-0.92118350409562466119	-0.79248217448096192062	121.09433019197660996724	0.00011791836732299998	-0.00053261331049725413	0.00119272002484649420	0.13652727007865905762	-0.13962489366531372070	9.79953002929687500000
1731583939.5345926285	-0.92117164421502206739	-0.79250942349428987743	121.09430468002705083563	0.00010748954809969291	-0.00053850567201152444	0.00117997836787253618	0.13633091747760772705	-0.13933579623699188232	9.79967212677001953125
1731583939.5346510410	-0.92115536498201378013	-0.79253305515149730098	121.09428092462695758513	0.00013575110642705113	-0.00051240430912002921	0.00116610620170831680	0.13643038272857666016	-0.13881233334541320801	9.80007171630859375000
1731583939.5347542763	-0.92113639985007023103	-0.79255561598441448545	121.09425832108502163464	0.00015161934425123036	-0.00050439673941582441	0.00115623895544558764	0.13650190830230712891	-0.13884024322032928467	9.79946041107177734375
1731583939.5444602966	-0.92112427871036939298	-0.79264963001526878017	121.09413869670771646270	0.00019651092588901520	-0.00045309861889109015	0.00117232312913984060	0.13680812716484069824	-0.13887442648410797119	9.79986476898193359375
1731583939.5444867611	-0.92110496959376342296	-0.79267016431226333673	121.09411279678261053050	0.00020369890262372792	-0.00047123435069806874	0.00119461130816489458	0.13679181039333343506	-0.13892526924610137939	9.79979705810546875000
1731583939.5445637703	-0.92108173104772805839	-0.79268881230349497180	121.09408805729640334903	0.00022852212714497000	-0.00045754847815260291	0.00118471018504351377	0.13654342293739318848	-0.13887074589729309082	9.79958438873291015625
1731583939.5445823669	-0.92105403728022650078	-0.79270627019090822429	121.09406278658116207225	0.00025686260778456926	-0.00044904198148287833	0.00118671031668782234	0.13670879602432250977	-0.13883864879608154297	9.80025482177734375000
1731583939.5540556908	-0.92099508367100701989	-0.79280124658673367666	121.09391025358434035297	0.00031235642381943762	-0.00045617474825121462	0.00114861410111188889	0.13728433847427368164	-0.13915579020977020264	9.80000305175781250000
1731583939.5540907383	-0.92097053174476628534	-0.79282375100122903788	121.09388592270664730677	0.00029740485479123890	-0.00046014788676984608	0.00115748506505042315	0.13737829029560089111	-0.13881018757820129395	9.80012130737304687500
1731583939.5542080402	-0.92094527989965013770	-0.79284566404091805225	121.09386440688632546880	0.00029974666540510952	-0.00045492948265746236	0.00113572448026388884	0.13738192617893218994	-0.13904382288455963135	9.79953670501708984375
1731583939.5542213917	-0.92091564297662398264	-0.79287584004788203007	121.09384089439919307551	0.00032817531609907746	-0.00051209062803536654	0.00114681932609528303	0.13741612434387207031	-0.13910424709320068359	9.79931831359863281250
1731583939.5638589859	-0.92084154152372055258	-0.79294648749447749214	121.09374805555717102834	0.00037805430474691093	-0.00042486019083298743	0.00110121804755181074	0.13807651400566101074	-0.13879275321960449219	9.80052089691162109375
1731583939.5638942719	-0.92081417902386586416	-0.79298071345150877853	121.09372540658387151780	0.00035417827893979847	-0.00043365362216718495	0.00107736897189170122	0.13775748014450073242	-0.13878898322582244873	9.80061054229736328125
1731583939.5640516281	-0.92079293490987523807	-0.79301588237660580738	121.09370270302656535932	0.00030936469556763768	-0.00043755985097959638	0.00107489305082708597	0.13791182637214660645	-0.13863271474838256836	9.80133628845214843750
1731583939.5640995502	-0.92077404458244560548	-0.79305425785656658011	121.09367626693693864581	0.00029158382676541805	-0.00045754932216368616	0.00109790393617004156	0.13779796659946441650	-0.13868375122547149658	9.80116844177246093750
